"","Subject_ID","Age","Gender","Session","Trial","Advisor","stm_Coh","stm_Dir","Decicion_1","Confidence_1","RT_1","Accuracy_1","Score_1","Score_2","Decision_2","Confidence_2","RT_2","Accuracy_2","avd_Decision","adv_Confidence","adv_Accuracy","abs_conf_1","Benefit","Calibration","Resolution"
"1",1,20,1,1,1,2,0.123,0,0,-0.7,4683,1,82,68,0,-0.6,11063,1,1,0.6,0,0.7,-14,1.57098216697147,-0.00717410931314677
"2",1,20,1,1,2,2,0.123,0,0,-0.6,3535,1,68,82,0,-0.7,9150,1,0,-0.7,1,0.6,14,1.57098216697147,-0.00717410931314677
"3",1,20,1,1,3,2,0.123,0,0,-0.7,1387,1,82,82,0,-0.7,4947,1,0,-0.8,1,0.7,0,1.57098216697147,-0.00717410931314677
"4",1,20,1,1,4,2,0.123,1,1,0.6,1510,1,68,68,1,0.6,5235,1,1,1,1,0.6,0,1.57098216697147,-0.00717410931314677
"5",1,20,1,1,5,2,0.123,0,0,-0.6,1142,1,68,28,1,0.6,5952,0,1,1,0,0.6,-40,1.57098216697147,-0.00717410931314677
"6",1,20,1,1,6,2,0.123,1,0,-0.6,2010,0,28,68,1,0.6,4320,1,1,0.6,1,0.6,40,1.57098216697147,-0.00717410931314677
"7",1,20,1,1,7,2,0.123,0,1,0.8,1655,0,-28,-28,1,0.8,3805,0,0,-0.7,1,0.8,0,1.57098216697147,-0.00717410931314677
"8",1,20,1,1,8,2,0.123,1,0,-0.7,1112,0,2,2,0,-0.7,4432,0,0,-0.7,0,0.7,0,1.57098216697147,-0.00717410931314677
"9",1,20,1,1,9,2,0.123,0,1,0.8,1190,0,-28,-28,1,0.8,2866,0,1,0.7,0,0.8,0,1.57098216697147,-0.00717410931314677
"10",1,20,1,1,10,2,0.123,0,0,-0.7,892,1,82,82,0,-0.7,2322,1,0,-1,1,0.7,0,1.57098216697147,-0.00717410931314677
"11",1,20,1,1,11,2,0.123,0,1,0.7,1591,0,2,2,1,0.7,3776,0,1,0.8,0,0.7,0,1.57098216697147,-0.00717410931314677
"12",1,20,1,1,12,2,0.123,1,0,-0.7,2223,0,2,28,0,-0.6,6498,0,1,0.8,1,0.7,26,1.57098216697147,-0.00717410931314677
"13",1,20,1,1,13,2,0.123,1,1,0.8,1758,1,92,92,1,0.8,3253,1,1,0.8,1,0.8,0,1.57098216697147,-0.00717410931314677
"14",1,20,1,1,14,2,0.123,0,1,0.9,1874,0,-62,-62,1,0.9,3199,0,1,0.9,0,0.9,0,1.57098216697147,-0.00717410931314677
"15",1,20,1,1,15,2,0.123,1,1,0.6,1826,1,68,68,1,0.6,3571,1,1,0.6,1,0.6,0,1.57098216697147,-0.00717410931314677
"16",1,20,1,1,16,2,0.123,1,1,0.7,3695,1,82,82,1,0.7,4995,1,1,0.7,1,0.7,0,1.57098216697147,-0.00717410931314677
"17",1,20,1,1,17,2,0.123,1,0,-0.8,1183,0,-28,-28,0,-0.8,2503,0,0,-0.9,0,0.8,0,1.57098216697147,-0.00717410931314677
"18",1,20,1,1,18,2,0.123,1,1,0.7,2042,1,82,68,1,0.6,6613,1,0,-0.9,0,0.7,-14,1.57098216697147,-0.00717410931314677
"19",1,20,1,1,19,2,0.123,1,1,0.7,1749,1,82,82,1,0.7,4234,1,0,-0.6,0,0.7,0,1.57098216697147,-0.00717410931314677
"20",1,20,1,1,20,2,0.123,0,1,0.7,3601,0,2,28,1,0.6,6716,0,0,-0.6,1,0.7,26,1.57098216697147,-0.00717410931314677
"21",1,20,1,1,21,2,0.123,1,1,0.7,24442,1,82,82,1,0.7,26777,1,1,0.6,1,0.7,0,1.57098216697147,-0.00717410931314677
"22",1,20,1,1,22,2,0.123,0,1,0.7,1658,0,2,28,1,0.6,5158,0,0,-1,1,0.7,26,1.57098216697147,-0.00717410931314677
"23",1,20,1,1,23,2,0.123,0,1,0.6,1083,0,28,28,1,0.6,2423,0,1,0.8,0,0.6,0,1.57098216697147,-0.00717410931314677
"24",1,20,1,1,24,2,0.123,0,0,-0.6,1169,1,68,68,0,-0.6,3084,1,0,-0.9,1,0.6,0,1.57098216697147,-0.00717410931314677
"25",1,20,1,1,25,2,0.123,0,0,-0.6,1155,1,68,68,0,-0.6,3065,1,0,-0.7,1,0.6,0,1.57098216697147,-0.00717410931314677
"26",1,20,1,1,26,2,0.123,0,0,-0.6,704,1,68,68,0,-0.6,2985,1,0,-0.7,1,0.6,0,1.57098216697147,-0.00717410931314677
"27",1,20,1,1,27,2,0.123,1,1,0.6,1667,1,68,82,1,0.7,3357,1,1,0.7,1,0.6,14,1.57098216697147,-0.00717410931314677
"28",1,20,1,1,28,2,0.123,0,0,-0.6,1509,1,68,28,1,0.6,6390,0,1,0.6,0,0.6,-40,1.57098216697147,-0.00717410931314677
"29",1,20,1,1,29,2,0.123,0,0,-0.8,1485,1,92,92,0,-0.8,3365,1,0,-0.8,1,0.8,0,1.57098216697147,-0.00717410931314677
"30",1,20,1,1,30,2,0.123,1,1,0.7,965,1,82,68,1,0.6,2955,1,0,-0.9,0,0.7,-14,1.57098216697147,-0.00717410931314677
"31",1,20,1,1,31,2,0.123,1,0,-0.6,816,0,28,28,0,-0.6,2726,0,0,-0.8,0,0.6,0,1.57098216697147,-0.00717410931314677
"32",1,20,1,1,32,2,0.123,1,1,0.8,4509,1,92,92,1,0.8,6589,1,1,0.8,1,0.8,0,1.57098216697147,-0.00717410931314677
"33",1,20,1,1,33,2,0.123,0,0,-0.7,1204,1,82,92,0,-0.8,4484,1,0,-1,1,0.7,10,1.57098216697147,-0.00717410931314677
"34",1,20,1,1,34,2,0.123,0,1,0.8,5523,0,-28,-28,1,0.8,7363,0,0,-0.8,1,0.8,0,1.57098216697147,-0.00717410931314677
"35",1,20,1,1,35,2,0.123,1,0,-0.8,1437,0,-28,-28,0,-0.8,3307,0,0,-0.7,0,0.8,0,1.57098216697147,-0.00717410931314677
"36",1,20,1,1,36,2,0.123,0,1,0.7,905,0,2,2,1,0.7,2225,0,0,-1,1,0.7,0,1.57098216697147,-0.00717410931314677
"37",1,20,1,1,37,2,0.123,1,1,0.6,1031,1,68,68,1,0.6,3246,1,0,-0.8,0,0.6,0,1.57098216697147,-0.00717410931314677
"38",1,20,1,1,38,2,0.123,1,0,-0.6,751,0,28,28,0,-0.6,2231,0,1,0.6,1,0.6,0,1.57098216697147,-0.00717410931314677
"39",1,20,1,1,39,2,0.123,0,0,-0.6,687,1,68,68,0,-0.6,3742,1,0,-0.6,1,0.6,0,1.57098216697147,-0.00717410931314677
"40",1,20,1,1,40,2,0.123,1,1,0.7,1175,1,82,82,1,0.7,3070,1,1,0.7,1,0.7,0,1.57098216697147,-0.00717410931314677
"41",1,20,1,1,41,2,0.123,0,0,-0.8,1423,1,92,92,0,-0.8,3383,1,1,0.8,0,0.8,0,1.57098216697147,-0.00717410931314677
"42",1,20,1,1,42,2,0.123,1,1,0.7,1986,1,82,82,1,0.7,3976,1,1,0.7,1,0.7,0,1.57098216697147,-0.00717410931314677
"43",1,20,1,1,43,2,0.123,0,1,0.7,993,0,2,2,1,0.7,2858,0,0,-1,1,0.7,0,1.57098216697147,-0.00717410931314677
"44",1,20,1,1,44,2,0.123,0,1,0.7,1063,0,2,68,0,-0.6,3958,1,0,-0.7,1,0.7,66,1.57098216697147,-0.00717410931314677
"45",1,20,1,1,45,2,0.123,1,0,-0.6,1837,0,28,28,0,-0.6,3727,0,1,0.8,1,0.6,0,1.57098216697147,-0.00717410931314677
"46",1,20,1,1,46,2,0.123,1,1,0.6,809,1,68,68,1,0.6,2119,1,1,0.9,1,0.6,0,1.57098216697147,-0.00717410931314677
"47",1,20,1,1,47,2,0.123,1,1,0.6,1718,1,68,68,1,0.6,3468,1,1,0.9,1,0.6,0,1.57098216697147,-0.00717410931314677
"48",1,20,1,1,48,2,0.123,1,0,-0.8,1741,0,-28,-28,0,-0.8,4357,0,1,1,1,0.8,0,1.57098216697147,-0.00717410931314677
"49",1,20,1,1,49,2,0.123,1,0,-0.6,923,0,28,28,0,-0.6,3523,0,1,0.6,1,0.6,0,1.57098216697147,-0.00717410931314677
"50",1,20,1,1,50,2,0.123,0,1,0.9,2241,0,-62,-62,1,0.9,5472,0,0,-0.6,1,0.9,0,1.57098216697147,-0.00717410931314677
"51",1,20,1,1,51,2,0.123,1,0,-0.7,963,0,2,28,0,-0.6,3403,0,1,0.8,1,0.7,26,1.57098216697147,-0.00717410931314677
"52",1,20,1,1,52,2,0.123,1,0,-0.6,891,0,28,28,0,-0.6,3311,0,0,-0.6,0,0.6,0,1.57098216697147,-0.00717410931314677
"53",1,20,1,1,53,2,0.123,1,1,0.7,1820,1,82,82,1,0.7,3260,1,1,1,1,0.7,0,1.57098216697147,-0.00717410931314677
"54",1,20,1,1,54,2,0.123,1,0,-0.7,990,0,2,2,0,-0.7,2445,0,1,0.6,1,0.7,0,1.57098216697147,-0.00717410931314677
"55",1,20,1,1,55,2,0.123,0,0,-0.6,1217,1,68,68,0,-0.6,3168,1,0,-1,1,0.6,0,1.57098216697147,-0.00717410931314677
"56",1,20,1,1,56,2,0.123,0,1,0.7,870,0,2,-28,1,0.8,2990,0,1,1,0,0.7,-30,1.57098216697147,-0.00717410931314677
"57",1,20,1,1,57,2,0.123,0,1,0.7,1917,0,2,2,1,0.7,3537,0,0,-0.6,1,0.7,0,1.57098216697147,-0.00717410931314677
"58",1,20,1,1,58,2,0.123,1,0,-0.8,1318,0,-28,-28,0,-0.8,3358,0,0,-0.8,0,0.8,0,1.57098216697147,-0.00717410931314677
"59",1,20,1,1,59,2,0.123,0,1,0.6,1085,0,28,28,1,0.6,4410,0,1,0.6,0,0.6,0,1.57098216697147,-0.00717410931314677
"60",1,20,1,1,60,2,0.123,0,0,-0.6,922,1,68,28,1,0.6,4492,0,1,0.9,0,0.6,-40,1.57098216697147,-0.00717410931314677
"61",1,20,1,1,61,2,0.123,1,0,-0.6,10460,0,28,28,0,-0.6,12970,0,0,-0.7,0,0.6,0,1.57098216697147,-0.00717410931314677
"62",1,20,1,1,62,2,0.123,1,0,-0.6,917,0,28,68,1,0.6,3792,1,1,0.8,1,0.6,40,1.57098216697147,-0.00717410931314677
"63",1,20,1,1,63,2,0.123,0,1,0.7,1502,0,2,28,1,0.6,3827,0,0,-0.8,1,0.7,26,1.57098216697147,-0.00717410931314677
"64",1,20,1,1,64,2,0.123,1,1,0.7,1203,1,82,28,0,-0.6,3828,0,0,-0.8,0,0.7,-54,1.57098216697147,-0.00717410931314677
"65",1,20,1,1,65,2,0.123,1,1,0.7,1322,1,82,82,1,0.7,3412,1,1,1,1,0.7,0,1.57098216697147,-0.00717410931314677
"66",1,20,1,1,66,2,0.123,0,1,0.7,2459,0,2,28,1,0.6,4219,0,0,-0.7,1,0.7,26,1.57098216697147,-0.00717410931314677
"67",1,20,1,1,67,2,0.123,1,0,-0.6,1518,0,28,82,1,0.7,4194,1,1,0.9,1,0.6,54,1.57098216697147,-0.00717410931314677
"68",1,20,1,1,68,2,0.123,1,1,0.8,1262,1,92,68,1,0.6,3552,1,0,-0.6,0,0.8,-24,1.57098216697147,-0.00717410931314677
"69",1,20,1,1,69,2,0.123,0,1,0.8,1326,0,-28,2,1,0.7,3666,0,0,-0.9,1,0.8,30,1.57098216697147,-0.00717410931314677
"70",1,20,1,1,70,2,0.123,0,1,0.7,1142,0,2,2,1,0.7,3272,0,0,-0.6,1,0.7,0,1.57098216697147,-0.00717410931314677
"71",1,20,1,1,71,2,0.123,0,0,-0.6,993,1,68,68,0,-0.6,2843,1,0,-0.6,1,0.6,0,1.57098216697147,-0.00717410931314677
"72",1,20,1,1,72,2,0.123,1,0,-0.8,1355,0,-28,-28,0,-0.8,3205,0,1,1,1,0.8,0,1.57098216697147,-0.00717410931314677
"73",1,20,1,1,73,2,0.123,0,1,0.6,2655,0,28,28,1,0.6,4600,0,0,-0.8,1,0.6,0,1.57098216697147,-0.00717410931314677
"74",1,20,1,1,74,2,0.123,0,0,-0.6,1241,1,68,28,1,0.6,5642,0,1,1,0,0.6,-40,1.57098216697147,-0.00717410931314677
"75",1,20,1,1,75,2,0.123,0,0,-0.6,1083,1,68,68,0,-0.6,2918,1,1,0.9,0,0.6,0,1.57098216697147,-0.00717410931314677
"76",1,20,1,1,76,2,0.123,1,0,-0.6,4096,0,28,2,0,-0.7,6531,0,0,-1,0,0.6,-26,1.57098216697147,-0.00717410931314677
"77",1,20,1,1,77,2,0.123,1,0,-0.6,889,0,28,28,0,-0.6,2834,0,0,-0.9,0,0.6,0,1.57098216697147,-0.00717410931314677
"78",1,20,1,1,78,2,0.123,1,1,0.9,1405,1,98,98,1,0.9,2760,1,0,-0.6,0,0.9,0,1.57098216697147,-0.00717410931314677
"79",1,20,1,1,79,2,0.123,1,1,1,1582,1,100,100,1,1,3487,1,1,0.7,1,1,0,1.57098216697147,-0.00717410931314677
"80",1,20,1,1,80,2,0.123,0,1,0.7,1214,0,2,2,1,0.7,2654,0,0,-0.7,1,0.7,0,1.57098216697147,-0.00717410931314677
"81",1,20,1,1,81,2,0.123,0,0,-0.6,2562,1,68,68,0,-0.6,4842,1,1,0.7,0,0.6,0,1.57098216697147,-0.00717410931314677
"82",1,20,1,1,82,2,0.123,0,0,-0.7,1186,1,82,82,0,-0.7,2976,1,0,-0.9,1,0.7,0,1.57098216697147,-0.00717410931314677
"83",1,20,1,1,83,2,0.123,0,1,0.6,938,0,28,28,1,0.6,2764,0,0,-0.9,1,0.6,0,1.57098216697147,-0.00717410931314677
"84",1,20,1,1,84,2,0.123,0,0,-0.7,1022,1,82,92,0,-0.8,3182,1,0,-0.8,1,0.7,10,1.57098216697147,-0.00717410931314677
"85",1,20,1,1,85,2,0.123,1,1,0.8,1007,1,92,92,1,0.8,2662,1,1,0.8,1,0.8,0,1.57098216697147,-0.00717410931314677
"86",1,20,1,1,86,2,0.123,1,0,-0.8,1434,0,-28,28,0,-0.6,4059,0,1,0.8,1,0.8,56,1.57098216697147,-0.00717410931314677
"87",1,20,1,1,87,2,0.123,1,1,0.7,1505,1,82,92,1,0.8,4735,1,1,1,1,0.7,10,1.57098216697147,-0.00717410931314677
"88",1,20,1,1,88,2,0.123,0,0,-0.6,1090,1,68,68,0,-0.6,3755,1,1,0.7,0,0.6,0,1.57098216697147,-0.00717410931314677
"89",1,20,1,1,89,2,0.123,0,0,-0.6,963,1,68,82,0,-0.7,2748,1,0,-1,1,0.6,14,1.57098216697147,-0.00717410931314677
"90",1,20,1,1,90,2,0.123,0,0,-0.7,1084,1,82,82,0,-0.7,4770,1,1,0.7,0,0.7,0,1.57098216697147,-0.00717410931314677
"91",1,20,1,1,91,2,0.123,1,0,-0.6,835,0,28,28,0,-0.6,2645,0,1,1,1,0.6,0,1.57098216697147,-0.00717410931314677
"92",1,20,1,1,92,2,0.123,1,1,0.6,1109,1,68,82,1,0.7,3550,1,1,0.9,1,0.6,14,1.57098216697147,-0.00717410931314677
"93",1,20,1,1,93,2,0.123,0,0,-0.7,1385,1,82,82,0,-0.7,3175,1,1,0.9,0,0.7,0,1.57098216697147,-0.00717410931314677
"94",1,20,1,1,94,2,0.123,1,1,0.8,1722,1,92,98,1,0.9,3692,1,1,0.9,1,0.8,6,1.57098216697147,-0.00717410931314677
"95",1,20,1,1,95,2,0.123,0,0,-0.8,1161,1,92,98,0,-0.9,3386,1,0,-0.9,1,0.8,6,1.57098216697147,-0.00717410931314677
"96",1,20,1,1,96,2,0.123,1,0,-0.7,1201,0,2,28,0,-0.6,5541,0,1,0.7,1,0.7,26,1.57098216697147,-0.00717410931314677
"97",1,20,1,1,97,2,0.123,1,0,-0.7,1121,0,2,2,0,-0.7,2886,0,0,-1,0,0.7,0,1.57098216697147,-0.00717410931314677
"98",1,20,1,1,98,2,0.123,1,1,0.8,1591,1,92,92,1,0.8,3376,1,1,0.9,1,0.8,0,1.57098216697147,-0.00717410931314677
"99",1,20,1,1,99,2,0.123,0,0,-0.7,1086,1,82,82,0,-0.7,3517,1,0,-0.6,1,0.7,0,1.57098216697147,-0.00717410931314677
"100",1,20,1,1,100,2,0.123,0,1,0.8,1254,0,-28,2,1,0.7,5549,0,0,-0.9,1,0.8,30,1.57098216697147,-0.00717410931314677
"101",1,20,1,1,101,2,0.123,1,0,-0.7,3125,0,2,2,0,-0.7,5210,0,0,-0.6,0,0.7,0,1.57098216697147,-0.00717410931314677
"102",1,20,1,1,102,2,0.123,0,1,0.7,700,0,2,2,1,0.7,2425,0,0,-1,1,0.7,0,1.57098216697147,-0.00717410931314677
"103",1,20,1,1,103,2,0.123,0,0,-0.6,1052,1,68,68,0,-0.6,2957,1,0,-0.7,1,0.6,0,1.57098216697147,-0.00717410931314677
"104",1,20,1,1,104,2,0.123,1,1,0.7,3349,1,82,82,1,0.7,5709,1,1,0.9,1,0.7,0,1.57098216697147,-0.00717410931314677
"105",1,20,1,1,105,2,0.123,1,0,-0.6,2150,0,28,28,0,-0.6,4060,0,1,0.6,1,0.6,0,1.57098216697147,-0.00717410931314677
"106",1,20,1,1,106,2,0.123,1,1,0.8,1913,1,92,92,1,0.8,3668,1,1,0.6,1,0.8,0,1.57098216697147,-0.00717410931314677
"107",1,20,1,1,107,2,0.123,1,0,-0.8,1836,0,-28,-28,0,-0.8,3941,0,1,0.8,1,0.8,0,1.57098216697147,-0.00717410931314677
"108",1,20,1,1,108,2,0.123,1,1,0.7,1297,1,82,82,1,0.7,3167,1,1,0.7,1,0.7,0,1.57098216697147,-0.00717410931314677
"109",1,20,1,1,109,2,0.123,1,1,0.6,989,1,68,68,1,0.6,3709,1,0,-0.8,0,0.6,0,1.57098216697147,-0.00717410931314677
"110",1,20,1,1,110,2,0.123,1,0,-0.7,1230,0,2,2,0,-0.7,3566,0,1,1,1,0.7,0,1.57098216697147,-0.00717410931314677
"111",1,20,1,1,111,2,0.123,0,0,-0.6,795,1,68,68,0,-0.6,2830,1,1,0.6,0,0.6,0,1.57098216697147,-0.00717410931314677
"112",1,20,1,1,112,2,0.123,0,1,0.6,978,0,28,2,1,0.7,2798,0,1,0.9,0,0.6,-26,1.57098216697147,-0.00717410931314677
"113",1,20,1,1,113,2,0.123,0,0,-0.7,1505,1,82,82,0,-0.7,3390,1,0,-0.9,1,0.7,0,1.57098216697147,-0.00717410931314677
"114",1,20,1,1,114,2,0.123,0,1,0.6,880,0,28,28,1,0.6,2610,0,0,-1,1,0.6,0,1.57098216697147,-0.00717410931314677
"115",1,20,1,1,115,2,0.123,0,0,-0.6,2240,1,68,68,0,-0.6,4130,1,1,0.7,0,0.6,0,1.57098216697147,-0.00717410931314677
"116",1,20,1,1,116,2,0.123,0,1,0.6,2048,0,28,68,0,-0.6,4698,1,0,-0.7,1,0.6,40,1.57098216697147,-0.00717410931314677
"117",1,20,1,1,117,2,0.123,0,0,-0.7,2130,1,82,92,0,-0.8,4856,1,0,-0.9,1,0.7,10,1.57098216697147,-0.00717410931314677
"118",1,20,1,1,118,2,0.123,0,1,0.9,1291,0,-62,-62,1,0.9,3066,0,0,-0.8,1,0.9,0,1.57098216697147,-0.00717410931314677
"119",1,20,1,1,119,2,0.123,1,1,0.7,1341,1,82,82,1,0.7,2826,1,0,-1,0,0.7,0,1.57098216697147,-0.00717410931314677
"120",1,20,1,1,120,2,0.123,1,0,-0.9,1362,0,-62,-62,0,-0.9,3112,0,1,1,1,0.9,0,1.57098216697147,-0.00717410931314677
"121",1,20,1,2,121,1,0.123,0,0,-0.6,13918,1,68,82,0,-0.7,15698,1,0,-0.9,1,0.6,14,1.57098216697147,-0.00717410931314677
"122",1,20,1,2,122,1,0.123,0,1,0.6,2549,0,28,68,0,-0.6,6544,1,0,-0.9,1,0.6,40,1.57098216697147,-0.00717410931314677
"123",1,20,1,2,123,1,0.123,0,1,0.6,1861,0,28,2,1,0.7,3766,0,1,0.9,0,0.6,-26,1.57098216697147,-0.00717410931314677
"124",1,20,1,2,124,1,0.123,1,1,0.6,1079,1,68,28,0,-0.6,3104,0,0,-0.8,0,0.6,-40,1.57098216697147,-0.00717410931314677
"125",1,20,1,2,125,1,0.123,1,1,0.6,4179,1,68,28,0,-0.6,6769,0,0,-0.6,0,0.6,-40,1.57098216697147,-0.00717410931314677
"126",1,20,1,2,126,1,0.123,0,1,0.7,1348,0,2,2,1,0.7,3043,0,0,-0.8,1,0.7,0,1.57098216697147,-0.00717410931314677
"127",1,20,1,2,127,1,0.123,1,0,-0.6,2363,0,28,28,0,-0.6,4018,0,1,1,1,0.6,0,1.57098216697147,-0.00717410931314677
"128",1,20,1,2,128,1,0.123,1,1,0.6,2017,1,68,82,1,0.7,4582,1,1,0.7,1,0.6,14,1.57098216697147,-0.00717410931314677
"129",1,20,1,2,129,1,0.123,1,0,-0.8,4528,0,-28,-28,0,-0.8,6393,0,0,-0.9,0,0.8,0,1.57098216697147,-0.00717410931314677
"130",1,20,1,2,130,1,0.123,0,1,0.7,2661,0,2,2,1,0.7,4561,0,0,-1,1,0.7,0,1.57098216697147,-0.00717410931314677
"131",1,20,1,2,131,1,0.123,0,0,-0.6,2147,1,68,68,0,-0.6,3577,1,1,1,0,0.6,0,1.57098216697147,-0.00717410931314677
"132",1,20,1,2,132,1,0.123,0,0,-0.6,4786,1,68,68,0,-0.6,6466,1,1,1,0,0.6,0,1.57098216697147,-0.00717410931314677
"133",1,20,1,2,133,1,0.123,0,0,-0.6,3096,1,68,68,0,-0.6,4741,1,1,1,0,0.6,0,1.57098216697147,-0.00717410931314677
"134",1,20,1,2,134,1,0.123,1,0,-0.6,985,0,28,28,0,-0.6,2635,0,0,-0.9,0,0.6,0,1.57098216697147,-0.00717410931314677
"135",1,20,1,2,135,1,0.123,1,0,-0.6,2744,0,28,28,0,-0.6,4399,0,1,0.6,1,0.6,0,1.57098216697147,-0.00717410931314677
"136",1,20,1,2,136,1,0.123,0,0,-0.7,8641,1,82,82,0,-0.7,9941,1,0,-0.7,1,0.7,0,1.57098216697147,-0.00717410931314677
"137",1,20,1,2,137,1,0.123,1,0,-0.6,973,0,28,28,0,-0.6,2733,0,1,0.8,1,0.6,0,1.57098216697147,-0.00717410931314677
"138",1,20,1,2,138,1,0.123,1,0,-0.6,812,0,28,28,0,-0.6,2192,0,0,-0.6,0,0.6,0,1.57098216697147,-0.00717410931314677
"139",1,20,1,2,139,1,0.123,0,0,-0.6,866,1,68,68,0,-0.6,3346,1,0,-0.9,1,0.6,0,1.57098216697147,-0.00717410931314677
"140",1,20,1,2,140,1,0.123,1,0,-0.6,2034,0,28,28,0,-0.6,5535,0,0,-0.6,0,0.6,0,1.57098216697147,-0.00717410931314677
"141",1,20,1,2,141,1,0.123,0,0,-0.6,1113,1,68,2,1,0.7,3863,0,1,0.9,0,0.6,-66,1.57098216697147,-0.00717410931314677
"142",1,20,1,2,142,1,0.123,0,0,-0.6,939,1,68,68,0,-0.6,2289,1,1,1,0,0.6,0,1.57098216697147,-0.00717410931314677
"143",1,20,1,2,143,1,0.123,1,0,-0.6,730,0,28,28,0,-0.6,2205,0,1,0.7,1,0.6,0,1.57098216697147,-0.00717410931314677
"144",1,20,1,2,144,1,0.123,0,0,-0.6,829,1,68,68,0,-0.6,3804,1,0,-0.7,1,0.6,0,1.57098216697147,-0.00717410931314677
"145",1,20,1,2,145,1,0.123,1,0,-0.6,788,0,28,28,0,-0.6,2569,0,1,0.9,1,0.6,0,1.57098216697147,-0.00717410931314677
"146",1,20,1,2,146,1,0.123,0,1,0.6,4512,0,28,28,1,0.6,5947,0,0,-0.8,1,0.6,0,1.57098216697147,-0.00717410931314677
"147",1,20,1,2,147,1,0.123,1,0,-0.6,977,0,28,28,0,-0.6,2643,0,1,1,1,0.6,0,1.57098216697147,-0.00717410931314677
"148",1,20,1,2,148,1,0.123,0,0,-0.6,1864,1,68,68,0,-0.6,4059,1,1,0.9,0,0.6,0,1.57098216697147,-0.00717410931314677
"149",1,20,1,2,149,1,0.123,1,1,0.7,2626,1,82,82,1,0.7,4201,1,0,-0.9,0,0.7,0,1.57098216697147,-0.00717410931314677
"150",1,20,1,2,150,1,0.123,1,0,-0.8,1129,0,-28,-28,0,-0.8,2839,0,0,-0.7,0,0.8,0,1.57098216697147,-0.00717410931314677
"151",1,20,1,2,151,1,0.123,1,1,1,1734,1,100,100,1,1,4774,1,1,1,1,1,0,1.57098216697147,-0.00717410931314677
"152",1,20,1,2,152,1,0.123,1,1,0.9,2980,1,98,98,1,0.9,4420,1,1,0.8,1,0.9,0,1.57098216697147,-0.00717410931314677
"153",1,20,1,2,153,1,0.123,0,1,0.8,1414,0,-28,-28,1,0.8,3104,0,1,0.7,0,0.8,0,1.57098216697147,-0.00717410931314677
"154",1,20,1,2,154,1,0.123,0,0,-1,1249,1,100,100,0,-1,2994,1,0,-1,1,1,0,1.57098216697147,-0.00717410931314677
"155",1,20,1,2,155,1,0.123,1,0,-0.6,1257,0,28,28,0,-0.6,2937,0,1,0.7,1,0.6,0,1.57098216697147,-0.00717410931314677
"156",1,20,1,2,156,1,0.123,0,1,0.8,928,0,-28,-28,1,0.8,2889,0,1,0.7,0,0.8,0,1.57098216697147,-0.00717410931314677
"157",1,20,1,2,157,1,0.123,1,0,-0.7,861,0,2,2,0,-0.7,3121,0,0,-0.7,0,0.7,0,1.57098216697147,-0.00717410931314677
"158",1,20,1,2,158,1,0.123,0,1,0.7,989,0,2,2,1,0.7,2704,0,0,-1,1,0.7,0,1.57098216697147,-0.00717410931314677
"159",1,20,1,2,159,1,0.123,0,0,-0.6,781,1,68,68,0,-0.6,2411,1,0,-0.7,1,0.6,0,1.57098216697147,-0.00717410931314677
"160",1,20,1,2,160,1,0.123,1,1,0.6,1997,1,68,68,1,0.6,3637,1,0,-0.9,0,0.6,0,1.57098216697147,-0.00717410931314677
"161",1,20,1,2,161,1,0.123,1,1,0.6,827,1,68,68,1,0.6,2152,1,1,0.6,1,0.6,0,1.57098216697147,-0.00717410931314677
"162",1,20,1,2,162,1,0.123,0,1,0.7,837,0,2,2,1,0.7,2572,0,1,0.6,0,0.7,0,1.57098216697147,-0.00717410931314677
"163",1,20,1,2,163,1,0.123,1,0,-0.8,1456,0,-28,-28,0,-0.8,3111,0,1,1,1,0.8,0,1.57098216697147,-0.00717410931314677
"164",1,20,1,2,164,1,0.123,1,0,-0.6,984,0,28,28,0,-0.6,2369,0,1,0.7,1,0.6,0,1.57098216697147,-0.00717410931314677
"165",1,20,1,2,165,1,0.123,1,1,0.6,1111,1,68,68,1,0.6,2771,1,0,-0.6,0,0.6,0,1.57098216697147,-0.00717410931314677
"166",1,20,1,2,166,1,0.123,0,1,0.6,928,0,28,2,1,0.7,2773,0,1,0.9,0,0.6,-26,1.57098216697147,-0.00717410931314677
"167",1,20,1,2,167,1,0.123,1,0,-0.7,1092,0,2,2,0,-0.7,2737,0,1,0.9,1,0.7,0,1.57098216697147,-0.00717410931314677
"168",1,20,1,2,168,1,0.123,0,0,-0.6,877,1,68,68,0,-0.6,2557,1,1,0.6,0,0.6,0,1.57098216697147,-0.00717410931314677
"169",1,20,1,2,169,1,0.123,1,0,-0.6,676,0,28,28,0,-0.6,2226,0,1,0.8,1,0.6,0,1.57098216697147,-0.00717410931314677
"170",1,20,1,2,170,1,0.123,0,0,-0.6,1817,1,68,68,0,-0.6,3452,1,0,-0.8,1,0.6,0,1.57098216697147,-0.00717410931314677
"171",1,20,1,2,171,1,0.123,0,0,-0.6,1895,1,68,28,1,0.6,3965,0,1,0.8,0,0.6,-40,1.57098216697147,-0.00717410931314677
"172",1,20,1,2,172,1,0.123,0,0,-0.6,758,1,68,68,0,-0.6,2368,1,1,0.6,0,0.6,0,1.57098216697147,-0.00717410931314677
"173",1,20,1,2,173,1,0.123,1,0,-0.6,661,0,28,28,0,-0.6,2346,0,1,0.8,1,0.6,0,1.57098216697147,-0.00717410931314677
"174",1,20,1,2,174,1,0.123,1,1,0.6,552,1,68,68,1,0.6,2377,1,0,-0.8,0,0.6,0,1.57098216697147,-0.00717410931314677
"175",1,20,1,2,175,1,0.123,1,0,-0.9,2524,0,-62,-62,0,-0.9,4154,0,1,1,1,0.9,0,1.57098216697147,-0.00717410931314677
"176",1,20,1,2,176,1,0.123,1,0,-0.6,607,0,28,28,0,-0.6,2197,0,1,0.8,1,0.6,0,1.57098216697147,-0.00717410931314677
"177",1,20,1,2,177,1,0.123,1,0,-0.7,903,0,2,2,0,-0.7,2464,0,0,-1,0,0.7,0,1.57098216697147,-0.00717410931314677
"178",1,20,1,2,178,1,0.123,1,1,0.8,1220,1,92,92,1,0.8,3260,1,1,0.8,1,0.8,0,1.57098216697147,-0.00717410931314677
"179",1,20,1,2,179,1,0.123,0,0,-0.8,1472,1,92,92,0,-0.8,3137,1,1,0.9,0,0.8,0,1.57098216697147,-0.00717410931314677
"180",1,20,1,2,180,1,0.123,0,1,0.9,1405,0,-62,-62,1,0.9,2805,0,1,0.7,0,0.9,0,1.57098216697147,-0.00717410931314677
"181",1,20,1,2,181,1,0.123,1,1,0.7,1162,1,82,68,1,0.6,3612,1,1,1,1,0.7,-14,1.57098216697147,-0.00717410931314677
"182",1,20,1,2,182,1,0.123,0,0,-0.6,1350,1,68,68,0,-0.6,2950,1,1,0.9,0,0.6,0,1.57098216697147,-0.00717410931314677
"183",1,20,1,2,183,1,0.123,1,1,0.7,889,1,82,82,1,0.7,2554,1,0,-0.8,0,0.7,0,1.57098216697147,-0.00717410931314677
"184",1,20,1,2,184,1,0.123,0,0,-0.8,936,1,92,98,0,-0.9,2711,1,0,-1,1,0.8,6,1.57098216697147,-0.00717410931314677
"185",1,20,1,2,185,1,0.123,1,1,0.8,1189,1,92,98,1,0.9,3364,1,1,1,1,0.8,6,1.57098216697147,-0.00717410931314677
"186",1,20,1,2,186,1,0.123,0,0,-1,1432,1,100,100,0,-1,3087,1,1,0.6,0,1,0,1.57098216697147,-0.00717410931314677
"187",1,20,1,2,187,1,0.123,1,1,1,1339,1,100,100,1,1,2894,1,1,0.7,1,1,0,1.57098216697147,-0.00717410931314677
"188",1,20,1,2,188,1,0.123,1,0,-1,1515,0,-100,-100,0,-1,3035,0,0,-0.6,0,1,0,1.57098216697147,-0.00717410931314677
"189",1,20,1,2,189,1,0.123,1,0,-0.6,2503,0,28,28,0,-0.6,4049,0,0,-1,0,0.6,0,1.57098216697147,-0.00717410931314677
"190",1,20,1,2,190,1,0.123,0,1,0.6,644,0,28,28,1,0.6,3639,0,1,0.6,0,0.6,0,1.57098216697147,-0.00717410931314677
"191",1,20,1,2,191,1,0.123,0,0,-0.7,952,1,82,82,0,-0.7,2577,1,0,-1,1,0.7,0,1.57098216697147,-0.00717410931314677
"192",1,20,1,2,192,1,0.123,1,1,0.6,714,1,68,68,1,0.6,2244,1,0,-0.8,0,0.6,0,1.57098216697147,-0.00717410931314677
"193",1,20,1,2,193,1,0.123,0,1,0.6,706,0,28,28,1,0.6,2251,0,0,-0.7,1,0.6,0,1.57098216697147,-0.00717410931314677
"194",1,20,1,2,194,1,0.123,0,0,-0.6,633,1,68,68,0,-0.6,2008,1,1,0.8,0,0.6,0,1.57098216697147,-0.00717410931314677
"195",1,20,1,2,195,1,0.123,0,1,0.6,646,0,28,28,1,0.6,2711,0,1,0.6,0,0.6,0,1.57098216697147,-0.00717410931314677
"196",1,20,1,2,196,1,0.123,0,0,-0.6,751,1,68,68,0,-0.6,2621,1,0,-1,1,0.6,0,1.57098216697147,-0.00717410931314677
"197",1,20,1,2,197,1,0.123,0,0,-0.7,4174,1,82,82,0,-0.7,5789,1,1,0.9,0,0.7,0,1.57098216697147,-0.00717410931314677
"198",1,20,1,2,198,1,0.123,0,0,-0.7,1095,1,82,82,0,-0.7,2585,1,0,-0.6,1,0.7,0,1.57098216697147,-0.00717410931314677
"199",1,20,1,2,199,1,0.123,1,1,0.8,1372,1,92,98,1,0.9,4913,1,1,1,1,0.8,6,1.57098216697147,-0.00717410931314677
"200",1,20,1,2,200,1,0.123,1,1,0.6,1114,1,68,68,1,0.6,2874,1,0,-0.9,0,0.6,0,1.57098216697147,-0.00717410931314677
"201",1,20,1,2,201,1,0.123,1,1,0.7,2004,1,82,82,1,0.7,3754,1,0,-0.7,0,0.7,0,1.57098216697147,-0.00717410931314677
"202",1,20,1,2,202,1,0.123,1,0,-0.8,2147,0,-28,-62,0,-0.9,4442,0,0,-0.7,0,0.8,-34,1.57098216697147,-0.00717410931314677
"203",1,20,1,2,203,1,0.123,0,1,0.6,1504,0,28,28,1,0.6,3039,0,0,-0.6,1,0.6,0,1.57098216697147,-0.00717410931314677
"204",1,20,1,2,204,1,0.123,0,1,0.6,1187,0,28,28,1,0.6,2877,0,0,-0.9,1,0.6,0,1.57098216697147,-0.00717410931314677
"205",1,20,1,2,205,1,0.123,0,1,0.6,1848,0,28,28,1,0.6,3398,0,0,-0.9,1,0.6,0,1.57098216697147,-0.00717410931314677
"206",1,20,1,2,206,1,0.123,1,0,-0.6,783,0,28,28,0,-0.6,3244,0,0,-1,0,0.6,0,1.57098216697147,-0.00717410931314677
"207",1,20,1,2,207,1,0.123,0,1,0.6,1941,0,28,28,1,0.6,3421,0,0,-0.9,1,0.6,0,1.57098216697147,-0.00717410931314677
"208",1,20,1,2,208,1,0.123,0,1,0.6,1329,0,28,28,1,0.6,3189,0,1,0.6,0,0.6,0,1.57098216697147,-0.00717410931314677
"209",1,20,1,2,209,1,0.123,1,0,-0.6,614,0,28,28,0,-0.6,2214,0,1,0.6,1,0.6,0,1.57098216697147,-0.00717410931314677
"210",1,20,1,2,210,1,0.123,1,1,0.6,818,1,68,68,1,0.6,2528,1,1,0.6,1,0.6,0,1.57098216697147,-0.00717410931314677
"211",1,20,1,2,211,1,0.123,1,1,0.6,827,1,68,68,1,0.6,2283,1,1,0.6,1,0.6,0,1.57098216697147,-0.00717410931314677
"212",1,20,1,2,212,1,0.123,0,1,0.6,545,0,28,28,1,0.6,2100,0,0,-0.6,1,0.6,0,1.57098216697147,-0.00717410931314677
"213",1,20,1,2,213,1,0.123,0,1,0.6,651,0,28,28,1,0.6,2146,0,0,-0.8,1,0.6,0,1.57098216697147,-0.00717410931314677
"214",1,20,1,2,214,1,0.123,1,0,-0.6,3198,0,28,28,0,-0.6,4598,0,0,-0.7,0,0.6,0,1.57098216697147,-0.00717410931314677
"215",1,20,1,2,215,1,0.123,1,1,0.6,3730,1,68,68,1,0.6,5300,1,1,0.8,1,0.6,0,1.57098216697147,-0.00717410931314677
"216",1,20,1,2,216,1,0.123,0,1,0.6,3966,0,28,28,1,0.6,5606,0,0,-0.8,1,0.6,0,1.57098216697147,-0.00717410931314677
"217",1,20,1,2,217,1,0.123,1,1,0.6,852,1,68,68,1,0.6,2312,1,1,0.7,1,0.6,0,1.57098216697147,-0.00717410931314677
"218",1,20,1,2,218,1,0.123,1,0,-1,1494,0,-100,-100,0,-1,3280,0,0,-0.8,0,1,0,1.57098216697147,-0.00717410931314677
"219",1,20,1,2,219,1,0.123,0,1,0.8,1224,0,-28,-28,1,0.8,2869,0,0,-0.6,1,0.8,0,1.57098216697147,-0.00717410931314677
"220",1,20,1,2,220,1,0.123,0,0,-0.8,1169,1,92,92,0,-0.8,2809,1,1,0.8,0,0.8,0,1.57098216697147,-0.00717410931314677
"221",1,20,1,2,221,1,0.123,1,1,0.7,1654,1,82,82,1,0.7,3249,1,0,-0.8,0,0.7,0,1.57098216697147,-0.00717410931314677
"222",1,20,1,2,222,1,0.123,1,1,0.7,1403,1,82,82,1,0.7,2778,1,1,0.7,1,0.7,0,1.57098216697147,-0.00717410931314677
"223",1,20,1,2,223,1,0.123,0,1,0.7,3334,0,2,28,1,0.6,6429,0,0,-0.7,1,0.7,26,1.57098216697147,-0.00717410931314677
"224",1,20,1,2,224,1,0.123,0,0,-0.6,1239,1,68,68,0,-0.6,3729,1,0,-0.6,1,0.6,0,1.57098216697147,-0.00717410931314677
"225",1,20,1,2,225,1,0.123,0,1,0.7,1234,0,2,2,1,0.7,3055,0,0,-0.7,1,0.7,0,1.57098216697147,-0.00717410931314677
"226",1,20,1,2,226,1,0.123,0,0,-0.6,1565,1,68,68,0,-0.6,3140,1,0,-1,1,0.6,0,1.57098216697147,-0.00717410931314677
"227",1,20,1,2,227,1,0.123,0,1,0.7,1680,0,2,28,1,0.6,3735,0,0,-0.6,1,0.7,26,1.57098216697147,-0.00717410931314677
"228",1,20,1,2,228,1,0.123,0,0,-0.6,2325,1,68,68,0,-0.6,4055,1,1,0.9,0,0.6,0,1.57098216697147,-0.00717410931314677
"229",1,20,1,2,229,1,0.123,1,0,-0.9,1448,0,-62,-28,0,-0.8,3473,0,1,0.8,1,0.9,34,1.57098216697147,-0.00717410931314677
"230",1,20,1,2,230,1,0.123,0,1,0.6,1747,0,28,68,0,-0.6,5187,1,0,-0.7,1,0.6,40,1.57098216697147,-0.00717410931314677
"231",1,20,1,2,231,1,0.123,0,0,-0.6,1031,1,68,82,0,-0.7,3021,1,0,-0.9,1,0.6,14,1.57098216697147,-0.00717410931314677
"232",1,20,1,2,232,1,0.123,1,0,-0.7,1195,0,2,2,0,-0.7,2836,0,1,0.7,1,0.7,0,1.57098216697147,-0.00717410931314677
"233",1,20,1,2,233,1,0.123,1,0,-0.6,1518,0,28,28,0,-0.6,4253,0,0,-0.6,0,0.6,0,1.57098216697147,-0.00717410931314677
"234",1,20,1,2,234,1,0.123,0,1,0.7,1271,0,2,2,1,0.7,2916,0,0,-0.8,1,0.7,0,1.57098216697147,-0.00717410931314677
"235",1,20,1,2,235,1,0.123,1,0,-0.6,1422,0,28,28,0,-0.6,4382,0,1,0.7,1,0.6,0,1.57098216697147,-0.00717410931314677
"236",1,20,1,2,236,1,0.123,0,0,-0.6,1006,1,68,68,0,-0.6,2631,1,1,0.9,0,0.6,0,1.57098216697147,-0.00717410931314677
"237",1,20,1,2,237,1,0.123,1,1,0.6,1151,1,68,68,1,0.6,3151,1,0,-1,0,0.6,0,1.57098216697147,-0.00717410931314677
"238",1,20,1,2,238,1,0.123,1,1,0.6,640,1,68,68,1,0.6,2215,1,1,0.8,1,0.6,0,1.57098216697147,-0.00717410931314677
"239",1,20,1,2,239,1,0.123,0,1,0.6,1074,0,28,28,1,0.6,3279,0,0,-1,1,0.6,0,1.57098216697147,-0.00717410931314677
"240",1,20,1,2,240,1,0.123,1,0,-0.6,1603,0,28,28,0,-0.6,3383,0,1,0.9,1,0.6,0,1.57098216697147,-0.00717410931314677
"241",2,27,1,1,1,1,0.028733,0,0,-0.7,3087,1,82,92,0,-0.8,6912,1,0,-0.9,1,0.7,10,-0.621064814814815,0.0761606677099634
"242",2,27,1,1,2,1,0.028733,1,1,0.8,1619,1,92,92,1,0.8,9005,1,0,-0.9,0,0.8,0,-0.621064814814815,0.0761606677099634
"243",2,27,1,1,3,1,0.028733,1,1,0.6,1756,1,68,68,1,0.6,5396,1,1,0.8,1,0.6,0,-0.621064814814815,0.0761606677099634
"244",2,27,1,1,4,1,0.028733,0,0,-0.6,3418,1,68,82,0,-0.7,5728,1,0,-0.7,1,0.6,14,-0.621064814814815,0.0761606677099634
"245",2,27,1,1,5,1,0.028733,1,1,0.8,1349,1,92,92,1,0.8,6114,1,0,-0.7,0,0.8,0,-0.621064814814815,0.0761606677099634
"246",2,27,1,1,6,1,0.028733,1,1,0.6,1681,1,68,82,1,0.7,6116,1,1,1,1,0.6,14,-0.621064814814815,0.0761606677099634
"247",2,27,1,1,7,1,0.028733,1,1,0.6,1027,1,68,82,1,0.7,3262,1,1,1,1,0.6,14,-0.621064814814815,0.0761606677099634
"248",2,27,1,1,8,1,0.028733,0,1,0.6,2088,0,28,28,1,0.6,10193,0,0,-0.8,1,0.6,0,-0.621064814814815,0.0761606677099634
"249",2,27,1,1,9,1,0.028733,1,1,0.6,1612,1,68,82,1,0.7,4392,1,1,0.9,1,0.6,14,-0.621064814814815,0.0761606677099634
"250",2,27,1,1,10,1,0.028733,1,1,0.6,2654,1,68,82,1,0.7,6569,1,1,0.8,1,0.6,14,-0.621064814814815,0.0761606677099634
"251",2,27,1,1,11,1,0.028733,1,1,0.6,988,1,68,68,1,0.6,4619,1,1,0.7,1,0.6,0,-0.621064814814815,0.0761606677099634
"252",2,27,1,1,12,1,0.028733,0,0,-0.6,1351,1,68,28,1,0.6,4106,0,1,0.6,0,0.6,-40,-0.621064814814815,0.0761606677099634
"253",2,27,1,1,13,1,0.028733,0,1,0.6,993,0,28,68,0,-0.6,5044,1,0,-0.9,1,0.6,40,-0.621064814814815,0.0761606677099634
"254",2,27,1,1,14,1,0.028733,0,0,-0.6,1575,1,68,28,1,0.6,5840,0,1,1,0,0.6,-40,-0.621064814814815,0.0761606677099634
"255",2,27,1,1,15,1,0.028733,0,0,-0.6,1813,1,68,82,0,-0.7,4094,1,0,-0.8,1,0.6,14,-0.621064814814815,0.0761606677099634
"256",2,27,1,1,16,1,0.028733,0,0,-0.6,763,1,68,82,0,-0.7,3258,1,0,-0.7,1,0.6,14,-0.621064814814815,0.0761606677099634
"257",2,27,1,1,17,1,0.028733,0,0,-0.6,1093,1,68,68,0,-0.6,3308,1,1,0.7,0,0.6,0,-0.621064814814815,0.0761606677099634
"258",2,27,1,1,18,1,0.028733,0,0,-0.6,858,1,68,82,0,-0.7,3063,1,0,-0.8,1,0.6,14,-0.621064814814815,0.0761606677099634
"259",2,27,1,1,19,1,0.028733,1,1,0.6,803,1,68,68,1,0.6,3153,1,1,0.7,1,0.6,0,-0.621064814814815,0.0761606677099634
"260",2,27,1,1,20,1,0.028733,1,1,0.7,1027,1,82,82,1,0.7,2733,1,0,-0.6,0,0.7,0,-0.621064814814815,0.0761606677099634
"261",2,27,1,1,21,1,0.028733,1,1,0.7,1087,1,82,92,1,0.8,3097,1,1,0.9,1,0.7,10,-0.621064814814815,0.0761606677099634
"262",2,27,1,1,22,1,0.028733,1,1,0.7,1129,1,82,82,1,0.7,2769,1,0,-0.8,0,0.7,0,-0.621064814814815,0.0761606677099634
"263",2,27,1,1,23,1,0.028733,0,1,0.6,697,0,28,28,1,0.6,2382,0,1,0.6,0,0.6,0,-0.621064814814815,0.0761606677099634
"264",2,27,1,1,24,1,0.028733,0,0,-0.7,2035,1,82,82,0,-0.7,3370,1,1,0.8,0,0.7,0,-0.621064814814815,0.0761606677099634
"265",2,27,1,1,25,1,0.028733,1,1,0.7,1266,1,82,82,1,0.7,3962,1,1,0.6,1,0.7,0,-0.621064814814815,0.0761606677099634
"266",2,27,1,1,26,1,0.028733,1,1,0.7,1934,1,82,92,1,0.8,3934,1,1,1,1,0.7,10,-0.621064814814815,0.0761606677099634
"267",2,27,1,1,27,1,0.028733,1,1,0.7,1385,1,82,98,1,0.9,5883,1,1,1,1,0.7,16,-0.621064814814815,0.0761606677099634
"268",2,27,1,1,28,1,0.028733,1,1,0.8,1443,1,92,92,1,0.8,3058,1,0,-0.8,0,0.8,0,-0.621064814814815,0.0761606677099634
"269",2,27,1,1,29,1,0.028733,0,1,0.6,799,0,28,28,1,0.6,5274,0,0,-1,1,0.6,0,-0.621064814814815,0.0761606677099634
"270",2,27,1,1,30,1,0.028733,1,1,0.6,1604,1,68,82,1,0.7,3714,1,1,0.9,1,0.6,14,-0.621064814814815,0.0761606677099634
"271",2,27,1,1,31,1,0.028733,0,0,-0.6,906,1,68,82,0,-0.7,2561,1,0,-0.9,1,0.6,14,-0.621064814814815,0.0761606677099634
"272",2,27,1,1,32,1,0.028733,0,0,-0.8,1225,1,92,92,0,-0.8,3160,1,0,-0.6,1,0.8,0,-0.621064814814815,0.0761606677099634
"273",2,27,1,1,33,1,0.028733,1,1,0.7,853,1,82,98,1,0.9,3028,1,1,1,1,0.7,16,-0.621064814814815,0.0761606677099634
"274",2,27,1,1,34,1,0.028733,0,0,-0.6,900,1,68,68,0,-0.6,2515,1,1,0.6,0,0.6,0,-0.621064814814815,0.0761606677099634
"275",2,27,1,1,35,1,0.028733,0,0,-0.7,963,1,82,82,0,-0.7,2588,1,1,0.7,0,0.7,0,-0.621064814814815,0.0761606677099634
"276",2,27,1,1,36,1,0.028733,1,1,0.6,732,1,68,68,1,0.6,2907,1,1,1,1,0.6,0,-0.621064814814815,0.0761606677099634
"277",2,27,1,1,37,1,0.028733,1,1,0.6,1377,1,68,68,1,0.6,4127,1,1,1,1,0.6,0,-0.621064814814815,0.0761606677099634
"278",2,27,1,1,38,1,0.028733,0,0,-0.7,828,1,82,98,0,-0.9,3298,1,0,-1,1,0.7,16,-0.621064814814815,0.0761606677099634
"279",2,27,1,1,39,1,0.028733,1,1,0.7,1408,1,82,92,1,0.8,3403,1,1,0.8,1,0.7,10,-0.621064814814815,0.0761606677099634
"280",2,27,1,1,40,1,0.028733,0,0,-0.6,684,1,68,82,0,-0.7,2619,1,0,-0.8,1,0.6,14,-0.621064814814815,0.0761606677099634
"281",2,27,1,1,41,1,0.028733,1,1,0.7,1647,1,82,82,1,0.7,3763,1,0,-0.8,0,0.7,0,-0.621064814814815,0.0761606677099634
"282",2,27,1,1,42,1,0.028733,0,0,-0.6,761,1,68,82,0,-0.7,2856,1,0,-0.7,1,0.6,14,-0.621064814814815,0.0761606677099634
"283",2,27,1,1,43,1,0.028733,1,1,0.7,1005,1,82,82,1,0.7,2590,1,0,-0.7,0,0.7,0,-0.621064814814815,0.0761606677099634
"284",2,27,1,1,44,1,0.028733,0,1,0.6,619,0,28,2,1,0.7,2569,0,1,0.8,0,0.6,-26,-0.621064814814815,0.0761606677099634
"285",2,27,1,1,45,1,0.028733,1,1,0.6,932,1,68,68,1,0.6,3212,1,0,-0.6,0,0.6,0,-0.621064814814815,0.0761606677099634
"286",2,27,1,1,46,1,0.028733,0,0,-0.6,702,1,68,68,0,-0.6,3117,1,0,-0.6,1,0.6,0,-0.621064814814815,0.0761606677099634
"287",2,27,1,1,47,1,0.028733,1,1,0.6,844,1,68,82,1,0.7,2859,1,1,0.8,1,0.6,14,-0.621064814814815,0.0761606677099634
"288",2,27,1,1,48,1,0.028733,0,0,-0.6,1558,1,68,92,0,-0.8,3658,1,0,-0.9,1,0.6,24,-0.621064814814815,0.0761606677099634
"289",2,27,1,1,49,1,0.028733,0,0,-0.8,1612,1,92,100,0,-1,3707,1,0,-1,1,0.8,8,-0.621064814814815,0.0761606677099634
"290",2,27,1,1,50,1,0.028733,0,0,-0.6,722,1,68,82,0,-0.7,3022,1,0,-0.8,1,0.6,14,-0.621064814814815,0.0761606677099634
"291",2,27,1,1,51,1,0.028733,0,0,-0.8,1280,1,92,100,0,-1,3571,1,0,-1,1,0.8,8,-0.621064814814815,0.0761606677099634
"292",2,27,1,1,52,1,0.028733,1,1,0.7,1014,1,82,98,1,0.9,3534,1,1,0.9,1,0.7,16,-0.621064814814815,0.0761606677099634
"293",2,27,1,1,53,1,0.028733,0,0,-0.6,647,1,68,68,0,-0.6,2182,1,0,-0.6,1,0.6,0,-0.621064814814815,0.0761606677099634
"294",2,27,1,1,54,1,0.028733,0,0,-0.6,1099,1,68,68,0,-0.6,4059,1,1,0.9,0,0.6,0,-0.621064814814815,0.0761606677099634
"295",2,27,1,1,55,1,0.028733,1,1,0.7,887,1,82,92,1,0.8,2837,1,1,0.9,1,0.7,10,-0.621064814814815,0.0761606677099634
"296",2,27,1,1,56,1,0.028733,1,1,0.7,872,1,82,82,1,0.7,2467,1,1,0.6,1,0.7,0,-0.621064814814815,0.0761606677099634
"297",2,27,1,1,57,1,0.028733,0,0,-0.6,669,1,68,68,0,-0.6,2774,1,0,-0.7,1,0.6,0,-0.621064814814815,0.0761606677099634
"298",2,27,1,1,58,1,0.028733,0,0,-0.6,665,1,68,82,0,-0.7,2675,1,0,-1,1,0.6,14,-0.621064814814815,0.0761606677099634
"299",2,27,1,1,59,1,0.028733,1,1,0.8,1328,1,92,92,1,0.8,2808,1,1,0.8,1,0.8,0,-0.621064814814815,0.0761606677099634
"300",2,27,1,1,60,1,0.028733,0,1,0.6,2312,0,28,68,0,-0.6,4447,1,0,-0.8,1,0.6,40,-0.621064814814815,0.0761606677099634
"301",2,27,1,1,61,1,0.028733,1,1,0.7,2168,1,82,82,1,0.7,3573,1,1,0.8,1,0.7,0,-0.621064814814815,0.0761606677099634
"302",2,27,1,1,62,1,0.028733,0,0,-0.6,945,1,68,68,0,-0.6,2775,1,0,-0.9,1,0.6,0,-0.621064814814815,0.0761606677099634
"303",2,27,1,1,63,1,0.028733,0,0,-0.7,1382,1,82,68,0,-0.6,3832,1,1,0.7,0,0.7,-14,-0.621064814814815,0.0761606677099634
"304",2,27,1,1,64,1,0.028733,1,1,0.6,2527,1,68,68,1,0.6,4267,1,0,-0.9,0,0.6,0,-0.621064814814815,0.0761606677099634
"305",2,27,1,1,65,1,0.028733,1,1,0.6,1424,1,68,68,1,0.6,3014,1,1,0.9,1,0.6,0,-0.621064814814815,0.0761606677099634
"306",2,27,1,1,66,1,0.028733,1,1,0.7,1101,1,82,92,1,0.8,3091,1,1,1,1,0.7,10,-0.621064814814815,0.0761606677099634
"307",2,27,1,1,67,1,0.028733,0,0,-0.7,1101,1,82,82,0,-0.7,2701,1,1,0.6,0,0.7,0,-0.621064814814815,0.0761606677099634
"308",2,27,1,1,68,1,0.028733,0,0,-0.7,1080,1,82,92,0,-0.8,4145,1,0,-0.6,1,0.7,10,-0.621064814814815,0.0761606677099634
"309",2,27,1,1,69,1,0.028733,1,1,0.7,875,1,82,92,1,0.8,2835,1,1,0.8,1,0.7,10,-0.621064814814815,0.0761606677099634
"310",2,27,1,1,70,1,0.028733,1,1,0.7,1011,1,82,98,1,0.9,3886,1,1,1,1,0.7,16,-0.621064814814815,0.0761606677099634
"311",2,27,1,1,71,1,0.028733,1,1,0.7,1100,1,82,92,1,0.8,3265,1,1,0.9,1,0.7,10,-0.621064814814815,0.0761606677099634
"312",2,27,1,1,72,1,0.028733,1,1,0.6,643,1,68,68,1,0.6,2298,1,1,0.7,1,0.6,0,-0.621064814814815,0.0761606677099634
"313",2,27,1,1,73,1,0.028733,1,1,0.8,1213,1,92,92,1,0.8,2908,1,1,0.7,1,0.8,0,-0.621064814814815,0.0761606677099634
"314",2,27,1,1,74,1,0.028733,0,1,0.6,621,0,28,28,1,0.6,2301,0,0,-0.9,1,0.6,0,-0.621064814814815,0.0761606677099634
"315",2,27,1,1,75,1,0.028733,1,1,0.6,582,1,68,68,1,0.6,2227,1,0,-0.8,0,0.6,0,-0.621064814814815,0.0761606677099634
"316",2,27,1,1,76,1,0.028733,1,1,0.7,747,1,82,82,1,0.7,2337,1,1,0.7,1,0.7,0,-0.621064814814815,0.0761606677099634
"317",2,27,1,1,77,1,0.028733,0,0,-0.6,665,1,68,82,0,-0.7,2615,1,0,-0.7,1,0.6,14,-0.621064814814815,0.0761606677099634
"318",2,27,1,1,78,1,0.028733,1,1,0.7,1235,1,82,98,1,0.9,4171,1,1,0.9,1,0.7,16,-0.621064814814815,0.0761606677099634
"319",2,27,1,1,79,1,0.028733,0,0,-0.8,1696,1,92,92,0,-0.8,4921,1,1,0.8,0,0.8,0,-0.621064814814815,0.0761606677099634
"320",2,27,1,1,80,1,0.028733,0,0,-0.7,924,1,82,98,0,-0.9,4780,1,0,-0.9,1,0.7,16,-0.621064814814815,0.0761606677099634
"321",2,27,1,1,81,1,0.028733,1,1,0.7,860,1,82,92,1,0.8,3340,1,1,0.9,1,0.7,10,-0.621064814814815,0.0761606677099634
"322",2,27,1,1,82,1,0.028733,1,1,0.8,1050,1,92,100,1,1,3870,1,1,1,1,0.8,8,-0.621064814814815,0.0761606677099634
"323",2,27,1,1,83,1,0.028733,0,0,-0.6,661,1,68,68,0,-0.6,2431,1,1,0.6,0,0.6,0,-0.621064814814815,0.0761606677099634
"324",2,27,1,1,84,1,0.028733,1,1,0.6,635,1,68,68,1,0.6,2270,1,0,-0.6,0,0.6,0,-0.621064814814815,0.0761606677099634
"325",2,27,1,1,85,1,0.028733,0,1,0.6,2001,0,28,28,1,0.6,3462,0,0,-0.7,1,0.6,0,-0.621064814814815,0.0761606677099634
"326",2,27,1,1,86,1,0.028733,1,1,0.8,1582,1,92,98,1,0.9,3577,1,1,0.9,1,0.8,6,-0.621064814814815,0.0761606677099634
"327",2,27,1,1,87,1,0.028733,1,1,0.8,1037,1,92,92,1,0.8,2622,1,0,-0.7,0,0.8,0,-0.621064814814815,0.0761606677099634
"328",2,27,1,1,88,1,0.028733,1,1,0.8,1197,1,92,92,1,0.8,2797,1,0,-0.6,0,0.8,0,-0.621064814814815,0.0761606677099634
"329",2,27,1,1,89,1,0.028733,0,1,0.6,941,0,28,2,1,0.7,2686,0,1,0.7,0,0.6,-26,-0.621064814814815,0.0761606677099634
"330",2,27,1,1,90,1,0.028733,0,1,0.6,2089,0,28,68,0,-0.6,4315,1,0,-0.8,1,0.6,40,-0.621064814814815,0.0761606677099634
"331",2,27,1,1,91,1,0.028733,1,1,0.6,698,1,68,82,1,0.7,2363,1,1,0.9,1,0.6,14,-0.621064814814815,0.0761606677099634
"332",2,27,1,1,92,1,0.028733,1,1,0.7,1010,1,82,92,1,0.8,3021,1,1,0.8,1,0.7,10,-0.621064814814815,0.0761606677099634
"333",2,27,1,1,93,1,0.028733,0,1,0.6,588,0,28,68,0,-0.6,3288,1,0,-0.9,1,0.6,40,-0.621064814814815,0.0761606677099634
"334",2,27,1,1,94,1,0.028733,1,1,0.7,1110,1,82,82,1,0.7,2825,1,1,0.6,1,0.7,0,-0.621064814814815,0.0761606677099634
"335",2,27,1,1,95,1,0.028733,0,0,-0.6,632,1,68,68,0,-0.6,2727,1,0,-0.6,1,0.6,0,-0.621064814814815,0.0761606677099634
"336",2,27,1,1,96,1,0.028733,1,1,0.7,941,1,82,82,1,0.7,2596,1,0,-0.6,0,0.7,0,-0.621064814814815,0.0761606677099634
"337",2,27,1,1,97,1,0.028733,0,1,0.6,1401,0,28,28,1,0.6,3011,0,1,0.6,0,0.6,0,-0.621064814814815,0.0761606677099634
"338",2,27,1,1,98,1,0.028733,0,1,0.6,691,0,28,28,1,0.6,3501,0,0,-0.6,1,0.6,0,-0.621064814814815,0.0761606677099634
"339",2,27,1,1,99,1,0.028733,1,1,0.6,1213,1,68,68,1,0.6,2993,1,0,-0.6,0,0.6,0,-0.621064814814815,0.0761606677099634
"340",2,27,1,1,100,1,0.028733,0,0,-0.7,1203,1,82,92,0,-0.8,3038,1,0,-0.9,1,0.7,10,-0.621064814814815,0.0761606677099634
"341",2,27,1,1,101,1,0.028733,0,1,0.7,1000,0,2,2,1,0.7,2860,0,0,-1,1,0.7,0,-0.621064814814815,0.0761606677099634
"342",2,27,1,1,102,1,0.028733,1,1,0.6,1352,1,68,68,1,0.6,3242,1,0,-0.9,0,0.6,0,-0.621064814814815,0.0761606677099634
"343",2,27,1,1,103,1,0.028733,0,0,-0.6,1437,1,68,68,0,-0.6,3117,1,1,0.6,0,0.6,0,-0.621064814814815,0.0761606677099634
"344",2,27,1,1,104,1,0.028733,1,1,0.7,1122,1,82,82,1,0.7,2867,1,1,0.6,1,0.7,0,-0.621064814814815,0.0761606677099634
"345",2,27,1,1,105,1,0.028733,0,0,-0.6,673,1,68,82,0,-0.7,2408,1,0,-0.7,1,0.6,14,-0.621064814814815,0.0761606677099634
"346",2,27,1,1,106,1,0.028733,0,0,-0.8,1259,1,92,92,0,-0.8,2929,1,0,-0.7,1,0.8,0,-0.621064814814815,0.0761606677099634
"347",2,27,1,1,107,1,0.028733,0,0,-0.8,1486,1,92,92,0,-0.8,3016,1,0,-0.8,1,0.8,0,-0.621064814814815,0.0761606677099634
"348",2,27,1,1,108,1,0.028733,0,0,-0.8,1138,1,92,100,0,-1,3363,1,0,-1,1,0.8,8,-0.621064814814815,0.0761606677099634
"349",2,27,1,1,109,1,0.028733,0,0,-0.8,1444,1,92,100,0,-1,3744,1,0,-1,1,0.8,8,-0.621064814814815,0.0761606677099634
"350",2,27,1,1,110,1,0.028733,1,1,0.6,620,1,68,82,1,0.7,2595,1,1,0.7,1,0.6,14,-0.621064814814815,0.0761606677099634
"351",2,27,1,1,111,1,0.028733,1,1,0.7,769,1,82,82,1,0.7,2329,1,0,-0.7,0,0.7,0,-0.621064814814815,0.0761606677099634
"352",2,27,1,1,112,1,0.028733,0,1,0.6,1603,0,28,68,0,-0.6,3763,1,0,-1,1,0.6,40,-0.621064814814815,0.0761606677099634
"353",2,27,1,1,113,1,0.028733,1,1,0.6,610,1,68,82,1,0.7,2340,1,1,1,1,0.6,14,-0.621064814814815,0.0761606677099634
"354",2,27,1,1,114,1,0.028733,1,1,0.6,669,1,68,82,1,0.7,2559,1,1,0.8,1,0.6,14,-0.621064814814815,0.0761606677099634
"355",2,27,1,1,115,1,0.028733,0,0,-0.6,887,1,68,82,0,-0.7,2753,1,0,-1,1,0.6,14,-0.621064814814815,0.0761606677099634
"356",2,27,1,1,116,1,0.028733,1,1,0.7,1058,1,82,82,1,0.7,2678,1,1,0.7,1,0.7,0,-0.621064814814815,0.0761606677099634
"357",2,27,1,1,117,1,0.028733,0,0,-0.7,1111,1,82,92,0,-0.8,5391,1,0,-1,1,0.7,10,-0.621064814814815,0.0761606677099634
"358",2,27,1,1,118,1,0.028733,0,0,-0.8,2428,1,92,92,0,-0.8,5963,1,0,-1,1,0.8,0,-0.621064814814815,0.0761606677099634
"359",2,27,1,1,119,1,0.028733,1,1,0.7,2088,1,82,82,1,0.7,3578,1,1,0.7,1,0.7,0,-0.621064814814815,0.0761606677099634
"360",2,27,1,1,120,1,0.028733,0,0,-0.8,3269,1,92,92,0,-0.8,4894,1,1,0.6,0,0.8,0,-0.621064814814815,0.0761606677099634
"361",2,27,1,2,121,2,0.028733,0,0,-0.6,1252,1,68,82,0,-0.7,3552,1,0,-0.8,1,0.6,14,-0.621064814814815,0.0761606677099634
"362",2,27,1,2,122,2,0.028733,0,0,-0.7,1779,1,82,82,0,-0.7,3284,1,0,-0.7,1,0.7,0,-0.621064814814815,0.0761606677099634
"363",2,27,1,2,123,2,0.028733,0,0,-0.8,1181,1,92,100,0,-1,3161,1,0,-1,1,0.8,8,-0.621064814814815,0.0761606677099634
"364",2,27,1,2,124,2,0.028733,0,0,-0.7,1768,1,82,98,0,-0.9,3779,1,0,-0.9,1,0.7,16,-0.621064814814815,0.0761606677099634
"365",2,27,1,2,125,2,0.028733,0,0,-0.7,1092,1,82,100,0,-1,3447,1,0,-0.9,1,0.7,18,-0.621064814814815,0.0761606677099634
"366",2,27,1,2,126,2,0.028733,1,1,0.7,907,1,82,82,1,0.7,2432,1,1,0.6,1,0.7,0,-0.621064814814815,0.0761606677099634
"367",2,27,1,2,127,2,0.028733,0,0,-0.6,916,1,68,92,0,-0.8,3206,1,0,-1,1,0.6,24,-0.621064814814815,0.0761606677099634
"368",2,27,1,2,128,2,0.028733,0,0,-0.7,1149,1,82,82,0,-0.7,3524,1,0,-0.6,1,0.7,0,-0.621064814814815,0.0761606677099634
"369",2,27,1,2,129,2,0.028733,0,0,-0.7,1087,1,82,92,0,-0.8,2953,1,0,-0.8,1,0.7,10,-0.621064814814815,0.0761606677099634
"370",2,27,1,2,130,2,0.028733,1,0,-0.6,1141,0,28,68,1,0.6,4651,1,1,0.7,1,0.6,40,-0.621064814814815,0.0761606677099634
"371",2,27,1,2,131,2,0.028733,1,0,-0.6,860,0,28,28,0,-0.6,2545,0,1,1,1,0.6,0,-0.621064814814815,0.0761606677099634
"372",2,27,1,2,132,2,0.028733,1,1,0.6,785,1,68,82,1,0.7,2945,1,1,0.9,1,0.6,14,-0.621064814814815,0.0761606677099634
"373",2,27,1,2,133,2,0.028733,1,1,0.6,1216,1,68,68,1,0.6,2776,1,1,0.6,1,0.6,0,-0.621064814814815,0.0761606677099634
"374",2,27,1,2,134,2,0.028733,1,1,0.7,844,1,82,100,1,1,3044,1,1,1,1,0.7,18,-0.621064814814815,0.0761606677099634
"375",2,27,1,2,135,2,0.028733,0,0,-0.7,927,1,82,92,0,-0.8,3482,1,0,-0.7,1,0.7,10,-0.621064814814815,0.0761606677099634
"376",2,27,1,2,136,2,0.028733,1,1,0.6,671,1,68,92,1,0.8,2891,1,1,1,1,0.6,24,-0.621064814814815,0.0761606677099634
"377",2,27,1,2,137,2,0.028733,1,1,0.7,951,1,82,100,1,1,3351,1,1,1,1,0.7,18,-0.621064814814815,0.0761606677099634
"378",2,27,1,2,138,2,0.028733,1,1,0.6,1069,1,68,82,1,0.7,2974,1,1,0.7,1,0.6,14,-0.621064814814815,0.0761606677099634
"379",2,27,1,2,139,2,0.028733,1,1,0.7,773,1,82,82,1,0.7,2603,1,1,0.6,1,0.7,0,-0.621064814814815,0.0761606677099634
"380",2,27,1,2,140,2,0.028733,1,1,0.8,1371,1,92,92,1,0.8,3851,1,1,0.8,1,0.8,0,-0.621064814814815,0.0761606677099634
"381",2,27,1,2,141,2,0.028733,0,1,0.6,731,0,28,68,0,-0.6,3171,1,0,-0.9,1,0.6,40,-0.621064814814815,0.0761606677099634
"382",2,27,1,2,142,2,0.028733,1,1,0.7,1176,1,82,82,1,0.7,2851,1,1,0.7,1,0.7,0,-0.621064814814815,0.0761606677099634
"383",2,27,1,2,143,2,0.028733,1,1,0.7,944,1,82,100,1,1,3499,1,1,0.9,1,0.7,18,-0.621064814814815,0.0761606677099634
"384",2,27,1,2,144,2,0.028733,0,0,-0.6,707,1,68,68,0,-0.6,2842,1,0,-0.6,1,0.6,0,-0.621064814814815,0.0761606677099634
"385",2,27,1,2,145,2,0.028733,0,0,-0.7,1491,1,82,92,0,-0.8,4211,1,0,-0.9,1,0.7,10,-0.621064814814815,0.0761606677099634
"386",2,27,1,2,146,2,0.028733,0,0,-0.6,1590,1,68,92,0,-0.8,5311,1,0,-1,1,0.6,24,-0.621064814814815,0.0761606677099634
"387",2,27,1,2,147,2,0.028733,0,0,-0.7,1180,1,82,100,0,-1,7485,1,0,-0.9,1,0.7,18,-0.621064814814815,0.0761606677099634
"388",2,27,1,2,148,2,0.028733,0,0,-0.7,1465,1,82,82,0,-0.7,3080,1,0,-0.7,1,0.7,0,-0.621064814814815,0.0761606677099634
"389",2,27,1,2,149,2,0.028733,1,1,0.7,2006,1,82,82,1,0.7,3671,1,1,0.7,1,0.7,0,-0.621064814814815,0.0761606677099634
"390",2,27,1,2,150,2,0.028733,0,0,-0.7,889,1,82,92,0,-0.8,3250,1,0,-1,1,0.7,10,-0.621064814814815,0.0761606677099634
"391",2,27,1,2,151,2,0.028733,1,1,0.6,872,1,68,82,1,0.7,2997,1,1,0.8,1,0.6,14,-0.621064814814815,0.0761606677099634
"392",2,27,1,2,152,2,0.028733,0,0,-0.7,1088,1,82,92,0,-0.8,3064,1,0,-0.8,1,0.7,10,-0.621064814814815,0.0761606677099634
"393",2,27,1,2,153,2,0.028733,1,1,0.8,1790,1,92,100,1,1,4256,1,1,0.9,1,0.8,8,-0.621064814814815,0.0761606677099634
"394",2,27,1,2,154,2,0.028733,0,1,0.7,1069,0,2,68,0,-0.6,3244,1,0,-0.9,1,0.7,66,-0.621064814814815,0.0761606677099634
"395",2,27,1,2,155,2,0.028733,0,0,-0.7,998,1,82,92,0,-0.8,4648,1,0,-0.8,1,0.7,10,-0.621064814814815,0.0761606677099634
"396",2,27,1,2,156,2,0.028733,1,1,0.7,1020,1,82,92,1,0.8,3175,1,1,0.8,1,0.7,10,-0.621064814814815,0.0761606677099634
"397",2,27,1,2,157,2,0.028733,1,1,0.7,895,1,82,100,1,1,3105,1,1,0.8,1,0.7,18,-0.621064814814815,0.0761606677099634
"398",2,27,1,2,158,2,0.028733,0,0,-0.7,1153,1,82,82,0,-0.7,5128,1,1,0.6,0,0.7,0,-0.621064814814815,0.0761606677099634
"399",2,27,1,2,159,2,0.028733,1,1,0.7,1024,1,82,92,1,0.8,3584,1,1,0.7,1,0.7,10,-0.621064814814815,0.0761606677099634
"400",2,27,1,2,160,2,0.028733,1,1,0.8,2028,1,92,92,1,0.8,3923,1,1,0.6,1,0.8,0,-0.621064814814815,0.0761606677099634
"401",2,27,1,2,161,2,0.028733,0,0,-0.7,1204,1,82,92,0,-0.8,3100,1,0,-0.7,1,0.7,10,-0.621064814814815,0.0761606677099634
"402",2,27,1,2,162,2,0.028733,1,1,0.7,1549,1,82,92,1,0.8,3479,1,1,0.7,1,0.7,10,-0.621064814814815,0.0761606677099634
"403",2,27,1,2,163,2,0.028733,0,1,0.6,1031,0,28,68,0,-0.6,3246,1,0,-0.8,1,0.6,40,-0.621064814814815,0.0761606677099634
"404",2,27,1,2,164,2,0.028733,1,1,0.7,1204,1,82,92,1,0.8,3079,1,1,0.7,1,0.7,10,-0.621064814814815,0.0761606677099634
"405",2,27,1,2,165,2,0.028733,0,1,0.6,851,0,28,68,0,-0.6,3551,1,0,-0.7,1,0.6,40,-0.621064814814815,0.0761606677099634
"406",2,27,1,2,166,2,0.028733,1,1,0.7,982,1,82,92,1,0.8,3483,1,1,0.9,1,0.7,10,-0.621064814814815,0.0761606677099634
"407",2,27,1,2,167,2,0.028733,1,1,0.8,1266,1,92,100,1,1,3176,1,1,0.8,1,0.8,8,-0.621064814814815,0.0761606677099634
"408",2,27,1,2,168,2,0.028733,1,1,0.7,781,1,82,82,1,0.7,3536,1,0,-0.6,0,0.7,0,-0.621064814814815,0.0761606677099634
"409",2,27,1,2,169,2,0.028733,0,0,-0.7,1446,1,82,92,0,-0.8,4701,1,0,-0.8,1,0.7,10,-0.621064814814815,0.0761606677099634
"410",2,27,1,2,170,2,0.028733,0,0,-0.6,923,1,68,68,0,-0.6,2788,1,1,0.6,0,0.6,0,-0.621064814814815,0.0761606677099634
"411",2,27,1,2,171,2,0.028733,0,0,-0.7,1996,1,82,82,0,-0.7,3911,1,0,-0.6,1,0.7,0,-0.621064814814815,0.0761606677099634
"412",2,27,1,2,172,2,0.028733,1,1,0.7,812,1,82,82,1,0.7,2597,1,0,-0.6,0,0.7,0,-0.621064814814815,0.0761606677099634
"413",2,27,1,2,173,2,0.028733,1,1,0.7,798,1,82,100,1,1,3044,1,1,0.8,1,0.7,18,-0.621064814814815,0.0761606677099634
"414",2,27,1,2,174,2,0.028733,1,1,0.7,793,1,82,92,1,0.8,2818,1,1,0.7,1,0.7,10,-0.621064814814815,0.0761606677099634
"415",2,27,1,2,175,2,0.028733,0,0,-0.6,783,1,68,92,0,-0.8,3028,1,0,-1,1,0.6,24,-0.621064814814815,0.0761606677099634
"416",2,27,1,2,176,2,0.028733,1,1,0.7,873,1,82,92,1,0.8,2838,1,1,0.6,1,0.7,10,-0.621064814814815,0.0761606677099634
"417",2,27,1,2,177,2,0.028733,0,0,-0.7,1112,1,82,100,0,-1,3547,1,0,-0.8,1,0.7,18,-0.621064814814815,0.0761606677099634
"418",2,27,1,2,178,2,0.028733,1,1,0.7,895,1,82,92,1,0.8,3786,1,1,0.8,1,0.7,10,-0.621064814814815,0.0761606677099634
"419",2,27,1,2,179,2,0.028733,0,1,0.6,900,0,28,68,0,-0.6,2905,1,0,-0.8,1,0.6,40,-0.621064814814815,0.0761606677099634
"420",2,27,1,2,180,2,0.028733,1,1,0.8,1500,1,92,100,1,1,3605,1,1,0.8,1,0.8,8,-0.621064814814815,0.0761606677099634
"421",2,27,1,2,181,2,0.028733,0,1,0.6,944,0,28,68,0,-0.6,2919,1,0,-0.9,1,0.6,40,-0.621064814814815,0.0761606677099634
"422",2,27,1,2,182,2,0.028733,0,0,-0.7,1122,1,82,92,0,-0.8,3217,1,0,-0.7,1,0.7,10,-0.621064814814815,0.0761606677099634
"423",2,27,1,2,183,2,0.028733,0,0,-0.7,1196,1,82,82,0,-0.7,4026,1,0,-0.6,1,0.7,0,-0.621064814814815,0.0761606677099634
"424",2,27,1,2,184,2,0.028733,1,1,0.8,1417,1,92,100,1,1,4692,1,1,1,1,0.8,8,-0.621064814814815,0.0761606677099634
"425",2,27,1,2,185,2,0.028733,0,0,-0.8,1770,1,92,100,0,-1,3940,1,0,-1,1,0.8,8,-0.621064814814815,0.0761606677099634
"426",2,27,1,2,186,2,0.028733,0,0,-0.6,1378,1,68,68,0,-0.6,3883,1,0,-1,1,0.6,0,-0.621064814814815,0.0761606677099634
"427",2,27,1,2,187,2,0.028733,1,1,0.7,802,1,82,82,1,0.7,3028,1,1,1,1,0.7,0,-0.621064814814815,0.0761606677099634
"428",2,27,1,2,188,2,0.028733,1,1,0.7,1109,1,82,92,1,0.8,3008,1,1,0.8,1,0.7,10,-0.621064814814815,0.0761606677099634
"429",2,27,1,2,189,2,0.028733,1,1,0.8,1435,1,92,82,1,0.7,4900,1,0,-0.6,0,0.8,-10,-0.621064814814815,0.0761606677099634
"430",2,27,1,2,190,2,0.028733,1,1,0.7,1152,1,82,92,1,0.8,4382,1,1,0.9,1,0.7,10,-0.621064814814815,0.0761606677099634
"431",2,27,1,2,191,2,0.028733,1,1,0.7,1076,1,82,82,1,0.7,2581,1,1,1,1,0.7,0,-0.621064814814815,0.0761606677099634
"432",2,27,1,2,192,2,0.028733,0,1,0.6,2517,0,28,68,0,-0.6,6247,1,0,-0.7,1,0.6,40,-0.621064814814815,0.0761606677099634
"433",2,27,1,2,193,2,0.028733,0,0,-0.7,1178,1,82,82,0,-0.7,3203,1,1,0.6,0,0.7,0,-0.621064814814815,0.0761606677099634
"434",2,27,1,2,194,2,0.028733,1,1,0.7,1259,1,82,100,1,1,3694,1,1,0.9,1,0.7,18,-0.621064814814815,0.0761606677099634
"435",2,27,1,2,195,2,0.028733,1,1,0.6,671,1,68,92,1,0.8,2601,1,1,1,1,0.6,24,-0.621064814814815,0.0761606677099634
"436",2,27,1,2,196,2,0.028733,0,1,0.6,510,0,28,68,0,-0.6,3396,1,0,-0.9,1,0.6,40,-0.621064814814815,0.0761606677099634
"437",2,27,1,2,197,2,0.028733,1,1,0.8,1096,1,92,92,1,0.8,2956,1,1,0.6,1,0.8,0,-0.621064814814815,0.0761606677099634
"438",2,27,1,2,198,2,0.028733,0,0,-0.7,1338,1,82,82,0,-0.7,3038,1,0,-0.9,1,0.7,0,-0.621064814814815,0.0761606677099634
"439",2,27,1,2,199,2,0.028733,1,1,0.7,1246,1,82,92,1,0.8,4681,1,1,1,1,0.7,10,-0.621064814814815,0.0761606677099634
"440",2,27,1,2,200,2,0.028733,0,0,-0.7,1082,1,82,100,0,-1,3527,1,0,-1,1,0.7,18,-0.621064814814815,0.0761606677099634
"441",2,27,1,2,201,2,0.028733,0,0,-0.6,700,1,68,82,0,-0.7,2491,1,0,-0.7,1,0.6,14,-0.621064814814815,0.0761606677099634
"442",2,27,1,2,202,2,0.028733,0,0,-0.6,932,1,68,82,0,-0.7,3247,1,0,-0.9,1,0.6,14,-0.621064814814815,0.0761606677099634
"443",2,27,1,2,203,2,0.028733,0,0,-0.7,2159,1,82,82,0,-0.7,3559,1,0,-0.7,1,0.7,0,-0.621064814814815,0.0761606677099634
"444",2,27,1,2,204,2,0.028733,0,0,-0.7,1010,1,82,98,0,-0.9,4685,1,0,-1,1,0.7,16,-0.621064814814815,0.0761606677099634
"445",2,27,1,2,205,2,0.028733,1,1,0.7,718,1,82,100,1,1,4463,1,1,0.9,1,0.7,18,-0.621064814814815,0.0761606677099634
"446",2,27,1,2,206,2,0.028733,1,1,0.7,925,1,82,82,1,0.7,2795,1,0,-0.6,0,0.7,0,-0.621064814814815,0.0761606677099634
"447",2,27,1,2,207,2,0.028733,1,1,0.8,1460,1,92,100,1,1,3565,1,1,0.8,1,0.8,8,-0.621064814814815,0.0761606677099634
"448",2,27,1,2,208,2,0.028733,1,1,0.7,783,1,82,100,1,1,2969,1,1,0.9,1,0.7,18,-0.621064814814815,0.0761606677099634
"449",2,27,1,2,209,2,0.028733,1,1,0.8,1047,1,92,100,1,1,3192,1,1,0.8,1,0.8,8,-0.621064814814815,0.0761606677099634
"450",2,27,1,2,210,2,0.028733,1,1,0.7,1027,1,82,100,1,1,3517,1,1,1,1,0.7,18,-0.621064814814815,0.0761606677099634
"451",2,27,1,2,211,2,0.028733,1,1,0.6,1015,1,68,82,1,0.7,3560,1,1,0.7,1,0.6,14,-0.621064814814815,0.0761606677099634
"452",2,27,1,2,212,2,0.028733,0,1,0.6,1053,0,28,68,0,-0.6,3598,1,0,-1,1,0.6,40,-0.621064814814815,0.0761606677099634
"453",2,27,1,2,213,2,0.028733,1,1,0.8,1728,1,92,92,1,0.8,3468,1,1,0.6,1,0.8,0,-0.621064814814815,0.0761606677099634
"454",2,27,1,2,214,2,0.028733,1,1,0.6,1279,1,68,92,1,0.8,3434,1,1,1,1,0.6,24,-0.621064814814815,0.0761606677099634
"455",2,27,1,2,215,2,0.028733,0,1,0.6,886,0,28,68,0,-0.6,4236,1,0,-0.8,1,0.6,40,-0.621064814814815,0.0761606677099634
"456",2,27,1,2,216,2,0.028733,0,0,-0.6,1045,1,68,68,0,-0.6,2860,1,0,-0.7,1,0.6,0,-0.621064814814815,0.0761606677099634
"457",2,27,1,2,217,2,0.028733,0,0,-0.6,838,1,68,68,0,-0.6,2609,1,0,-0.6,1,0.6,0,-0.621064814814815,0.0761606677099634
"458",2,27,1,2,218,2,0.028733,1,1,0.7,1360,1,82,82,1,0.7,2985,1,0,-0.6,0,0.7,0,-0.621064814814815,0.0761606677099634
"459",2,27,1,2,219,2,0.028733,1,1,0.7,1164,1,82,92,1,0.8,3709,1,1,0.7,1,0.7,10,-0.621064814814815,0.0761606677099634
"460",2,27,1,2,220,2,0.028733,0,0,-0.7,797,1,82,100,0,-1,3437,1,0,-1,1,0.7,18,-0.621064814814815,0.0761606677099634
"461",2,27,1,2,221,2,0.028733,0,0,-0.7,925,1,82,100,0,-1,3435,1,0,-1,1,0.7,18,-0.621064814814815,0.0761606677099634
"462",2,27,1,2,222,2,0.028733,0,0,-0.7,978,1,82,98,0,-0.9,3544,1,0,-0.8,1,0.7,16,-0.621064814814815,0.0761606677099634
"463",2,27,1,2,223,2,0.028733,0,0,-0.7,1556,1,82,82,0,-0.7,3276,1,1,0.6,0,0.7,0,-0.621064814814815,0.0761606677099634
"464",2,27,1,2,224,2,0.028733,1,1,0.7,1549,1,82,98,1,0.9,4239,1,1,0.8,1,0.7,16,-0.621064814814815,0.0761606677099634
"465",2,27,1,2,225,2,0.028733,0,0,-0.7,832,1,82,82,0,-0.7,2437,1,0,-0.6,1,0.7,0,-0.621064814814815,0.0761606677099634
"466",2,27,1,2,226,2,0.028733,0,0,-0.7,941,1,82,100,0,-1,3926,1,0,-0.9,1,0.7,18,-0.621064814814815,0.0761606677099634
"467",2,27,1,2,227,2,0.028733,0,0,-0.8,1450,1,92,100,0,-1,3675,1,0,-0.8,1,0.8,8,-0.621064814814815,0.0761606677099634
"468",2,27,1,2,228,2,0.028733,1,1,0.8,1110,1,92,92,1,0.8,3140,1,1,0.7,1,0.8,0,-0.621064814814815,0.0761606677099634
"469",2,27,1,2,229,2,0.028733,0,0,-0.7,1483,1,82,98,0,-0.9,4119,1,0,-0.7,1,0.7,16,-0.621064814814815,0.0761606677099634
"470",2,27,1,2,230,2,0.028733,0,0,-0.6,1024,1,68,92,0,-0.8,4349,1,0,-0.9,1,0.6,24,-0.621064814814815,0.0761606677099634
"471",2,27,1,2,231,2,0.028733,1,1,0.7,870,1,82,100,1,1,3080,1,1,0.9,1,0.7,18,-0.621064814814815,0.0761606677099634
"472",2,27,1,2,232,2,0.028733,1,1,0.6,785,1,68,100,1,1,4010,1,1,0.9,1,0.6,32,-0.621064814814815,0.0761606677099634
"473",2,27,1,2,233,2,0.028733,0,0,-0.8,1044,1,92,100,0,-1,3144,1,0,-0.8,1,0.8,8,-0.621064814814815,0.0761606677099634
"474",2,27,1,2,234,2,0.028733,0,0,-0.7,828,1,82,82,0,-0.7,2483,1,0,-0.6,1,0.7,0,-0.621064814814815,0.0761606677099634
"475",2,27,1,2,235,2,0.028733,0,0,-0.8,1343,1,92,92,0,-0.8,4338,1,1,0.7,0,0.8,0,-0.621064814814815,0.0761606677099634
"476",2,27,1,2,236,2,0.028733,0,0,-0.7,984,1,82,92,0,-0.8,2775,1,0,-0.7,1,0.7,10,-0.621064814814815,0.0761606677099634
"477",2,27,1,2,237,2,0.028733,1,1,0.6,1179,1,68,92,1,0.8,4284,1,1,0.9,1,0.6,24,-0.621064814814815,0.0761606677099634
"478",2,27,1,2,238,2,0.028733,1,1,0.7,932,1,82,100,1,1,3037,1,1,1,1,0.7,18,-0.621064814814815,0.0761606677099634
"479",2,27,1,2,239,2,0.028733,1,1,0.6,590,1,68,100,1,1,3190,1,1,0.9,1,0.6,32,-0.621064814814815,0.0761606677099634
"480",2,27,1,2,240,2,0.028733,1,1,0.7,862,1,82,92,1,0.8,3302,1,1,0.6,1,0.7,10,-0.621064814814815,0.0761606677099634
"481",3,28,0,1,1,2,0.090667,0,1,0.6,3369,0,28,82,0,-0.7,8349,1,0,-0.9,1,0.6,54,-0.447512101767421,0.133754305396096
"482",3,28,0,1,2,2,0.090667,1,1,1,1873,1,100,100,1,1,7323,1,0,-0.7,0,1,0,-0.447512101767421,0.133754305396096
"483",3,28,0,1,3,2,0.090667,0,1,0.6,2367,0,28,28,1,0.6,11568,0,0,-0.7,1,0.6,0,-0.447512101767421,0.133754305396096
"484",3,28,0,1,4,2,0.090667,1,1,1,1322,1,100,100,1,1,5833,1,1,0.8,1,1,0,-0.447512101767421,0.133754305396096
"485",3,28,0,1,5,2,0.090667,0,0,-0.6,1194,1,68,100,0,-1,4869,1,0,-1,1,0.6,32,-0.447512101767421,0.133754305396096
"486",3,28,0,1,6,2,0.090667,1,1,1,1921,1,100,100,1,1,3551,1,1,1,1,1,0,-0.447512101767421,0.133754305396096
"487",3,28,0,1,7,2,0.090667,1,1,1,1292,1,100,100,1,1,2772,1,1,1,1,1,0,-0.447512101767421,0.133754305396096
"488",3,28,0,1,8,2,0.090667,0,1,0.9,2699,0,-62,68,0,-0.6,6394,1,0,-0.8,1,0.9,130,-0.447512101767421,0.133754305396096
"489",3,28,0,1,9,2,0.090667,0,0,-0.6,2159,1,68,68,0,-0.6,4929,1,0,-0.7,1,0.6,0,-0.447512101767421,0.133754305396096
"490",3,28,0,1,10,2,0.090667,1,1,1,1053,1,100,100,1,1,2958,1,1,0.8,1,1,0,-0.447512101767421,0.133754305396096
"491",3,28,0,1,11,2,0.090667,1,1,1,1788,1,100,100,1,1,3898,1,1,0.7,1,1,0,-0.447512101767421,0.133754305396096
"492",3,28,0,1,12,2,0.090667,1,1,1,2483,1,100,100,1,1,5408,1,1,0.9,1,1,0,-0.447512101767421,0.133754305396096
"493",3,28,0,1,13,2,0.090667,1,1,1,1616,1,100,100,1,1,4296,1,1,0.6,1,1,0,-0.447512101767421,0.133754305396096
"494",3,28,0,1,14,2,0.090667,1,1,0.9,1738,1,98,100,1,1,3824,1,1,1,1,0.9,2,-0.447512101767421,0.133754305396096
"495",3,28,0,1,15,2,0.090667,0,0,-0.6,1042,1,68,82,0,-0.7,3373,1,0,-0.8,1,0.6,14,-0.447512101767421,0.133754305396096
"496",3,28,0,1,16,2,0.090667,1,1,1,1326,1,100,100,1,1,3071,1,1,0.8,1,1,0,-0.447512101767421,0.133754305396096
"497",3,28,0,1,17,2,0.090667,0,0,-0.6,818,1,68,68,0,-0.6,2983,1,1,0.6,0,0.6,0,-0.447512101767421,0.133754305396096
"498",3,28,0,1,18,2,0.090667,1,1,1,1229,1,100,100,1,1,3829,1,1,0.8,1,1,0,-0.447512101767421,0.133754305396096
"499",3,28,0,1,19,2,0.090667,0,0,-0.6,1009,1,68,82,0,-0.7,3189,1,0,-0.8,1,0.6,14,-0.447512101767421,0.133754305396096
"500",3,28,0,1,20,2,0.090667,1,1,0.9,1157,1,98,98,1,0.9,3607,1,1,0.6,1,0.9,0,-0.447512101767421,0.133754305396096
"501",3,28,0,1,21,2,0.090667,1,1,1,1485,1,100,100,1,1,5045,1,1,0.8,1,1,0,-0.447512101767421,0.133754305396096
"502",3,28,0,1,22,2,0.090667,1,1,1,1376,1,100,92,1,0.8,5047,1,0,-0.7,0,1,-8,-0.447512101767421,0.133754305396096
"503",3,28,0,1,23,2,0.090667,1,1,1,1504,1,100,100,1,1,2887,1,1,0.9,1,1,0,-0.447512101767421,0.133754305396096
"504",3,28,0,1,24,2,0.090667,1,1,0.6,957,1,68,92,1,0.8,3246,1,1,1,1,0.6,24,-0.447512101767421,0.133754305396096
"505",3,28,0,1,25,2,0.090667,1,1,0.8,920,1,92,92,1,0.8,3160,1,1,0.6,1,0.8,0,-0.447512101767421,0.133754305396096
"506",3,28,0,1,26,2,0.090667,1,1,0.6,955,1,68,98,1,0.9,3325,1,1,1,1,0.6,30,-0.447512101767421,0.133754305396096
"507",3,28,0,1,27,2,0.090667,0,0,-0.8,1369,1,92,82,0,-0.7,4359,1,1,0.7,0,0.8,-10,-0.447512101767421,0.133754305396096
"508",3,28,0,1,28,2,0.090667,0,0,-0.6,822,1,68,98,0,-0.9,3127,1,0,-1,1,0.6,30,-0.447512101767421,0.133754305396096
"509",3,28,0,1,29,2,0.090667,0,1,0.6,696,0,28,98,0,-0.9,3977,1,0,-1,1,0.6,70,-0.447512101767421,0.133754305396096
"510",3,28,0,1,30,2,0.090667,1,1,0.9,1185,1,98,100,1,1,3320,1,1,0.9,1,0.9,2,-0.447512101767421,0.133754305396096
"511",3,28,0,1,31,2,0.090667,0,0,-0.6,865,1,68,92,0,-0.8,2760,1,0,-0.9,1,0.6,24,-0.447512101767421,0.133754305396096
"512",3,28,0,1,32,2,0.090667,1,1,0.9,1273,1,98,100,1,1,3073,1,1,0.9,1,0.9,2,-0.447512101767421,0.133754305396096
"513",3,28,0,1,33,2,0.090667,1,1,0.9,1083,1,98,100,1,1,2913,1,1,0.9,1,0.9,2,-0.447512101767421,0.133754305396096
"514",3,28,0,1,34,2,0.090667,0,0,-0.6,553,1,68,68,0,-0.6,2474,1,0,-0.6,1,0.6,0,-0.447512101767421,0.133754305396096
"515",3,28,0,1,35,2,0.090667,0,0,-0.6,513,1,68,68,0,-0.6,3443,1,1,0.7,0,0.6,0,-0.447512101767421,0.133754305396096
"516",3,28,0,1,36,2,0.090667,0,0,-0.8,1017,1,92,98,0,-0.9,2807,1,0,-0.6,1,0.8,6,-0.447512101767421,0.133754305396096
"517",3,28,0,1,37,2,0.090667,1,0,-0.6,760,0,28,92,1,0.8,3465,1,1,1,1,0.6,64,-0.447512101767421,0.133754305396096
"518",3,28,0,1,38,2,0.090667,1,0,-0.6,1193,0,28,2,0,-0.7,3258,0,0,-0.6,0,0.6,-26,-0.447512101767421,0.133754305396096
"519",3,28,0,1,39,2,0.090667,0,1,0.6,1946,0,28,68,0,-0.6,4096,1,0,-0.8,1,0.6,40,-0.447512101767421,0.133754305396096
"520",3,28,0,1,40,2,0.090667,1,1,0.9,1100,1,98,100,1,1,3960,1,1,0.7,1,0.9,2,-0.447512101767421,0.133754305396096
"521",3,28,0,1,41,2,0.090667,1,0,-0.6,820,0,28,2,0,-0.7,2680,0,0,-0.7,0,0.6,-26,-0.447512101767421,0.133754305396096
"522",3,28,0,1,42,2,0.090667,1,1,0.6,1235,1,68,82,1,0.7,2875,1,1,0.8,1,0.6,14,-0.447512101767421,0.133754305396096
"523",3,28,0,1,43,2,0.090667,0,0,-0.6,680,1,68,98,0,-0.9,2691,1,0,-1,1,0.6,30,-0.447512101767421,0.133754305396096
"524",3,28,0,1,44,2,0.090667,0,0,-0.6,1511,1,68,28,1,0.6,3461,0,1,0.7,0,0.6,-40,-0.447512101767421,0.133754305396096
"525",3,28,0,1,45,2,0.090667,0,0,-0.8,1205,1,92,100,0,-1,3245,1,0,-0.9,1,0.8,8,-0.447512101767421,0.133754305396096
"526",3,28,0,1,46,2,0.090667,1,1,0.7,1183,1,82,100,1,1,3393,1,1,0.9,1,0.7,18,-0.447512101767421,0.133754305396096
"527",3,28,0,1,47,2,0.090667,1,1,0.6,986,1,68,98,1,0.9,3041,1,1,0.8,1,0.6,30,-0.447512101767421,0.133754305396096
"528",3,28,0,1,48,2,0.090667,1,1,0.9,927,1,98,100,1,1,3583,1,1,0.6,1,0.9,2,-0.447512101767421,0.133754305396096
"529",3,28,0,1,49,2,0.090667,0,0,-0.7,880,1,82,100,0,-1,3135,1,0,-1,1,0.7,18,-0.447512101767421,0.133754305396096
"530",3,28,0,1,50,2,0.090667,0,0,-0.6,615,1,68,98,0,-0.9,2740,1,0,-0.8,1,0.6,30,-0.447512101767421,0.133754305396096
"531",3,28,0,1,51,2,0.090667,1,1,0.6,569,1,68,68,1,0.6,2899,1,0,-0.6,0,0.6,0,-0.447512101767421,0.133754305396096
"532",3,28,0,1,52,2,0.090667,1,1,0.8,2206,1,92,100,1,1,4196,1,1,0.9,1,0.8,8,-0.447512101767421,0.133754305396096
"533",3,28,0,1,53,2,0.090667,1,0,-0.6,798,0,28,92,1,0.8,3617,1,1,0.9,1,0.6,64,-0.447512101767421,0.133754305396096
"534",3,28,0,1,54,2,0.090667,0,0,-0.7,749,1,82,68,0,-0.6,2844,1,1,0.7,0,0.7,-14,-0.447512101767421,0.133754305396096
"535",3,28,0,1,55,2,0.090667,0,0,-0.9,954,1,98,100,0,-1,3059,1,0,-0.6,1,0.9,2,-0.447512101767421,0.133754305396096
"536",3,28,0,1,56,2,0.090667,0,0,-0.7,1153,1,82,100,0,-1,3338,1,0,-0.9,1,0.7,18,-0.447512101767421,0.133754305396096
"537",3,28,0,1,57,2,0.090667,0,0,-0.7,773,1,82,92,0,-0.8,2672,1,0,-0.6,1,0.7,10,-0.447512101767421,0.133754305396096
"538",3,28,0,1,58,2,0.090667,1,0,-0.6,638,0,28,28,0,-0.6,2223,0,0,-0.6,0,0.6,0,-0.447512101767421,0.133754305396096
"539",3,28,0,1,59,2,0.090667,0,0,-0.6,515,1,68,82,0,-0.7,2240,1,0,-0.8,1,0.6,14,-0.447512101767421,0.133754305396096
"540",3,28,0,1,60,2,0.090667,0,0,-0.6,436,1,68,82,0,-0.7,2174,1,0,-0.8,1,0.6,14,-0.447512101767421,0.133754305396096
"541",3,28,0,1,61,2,0.090667,1,1,0.6,846,1,68,82,1,0.7,2636,1,1,0.7,1,0.6,14,-0.447512101767421,0.133754305396096
"542",3,28,0,1,62,2,0.090667,0,1,0.7,898,0,2,68,0,-0.6,2983,1,0,-0.9,1,0.7,66,-0.447512101767421,0.133754305396096
"543",3,28,0,1,63,2,0.090667,1,1,0.7,735,1,82,100,1,1,3035,1,1,1,1,0.7,18,-0.447512101767421,0.133754305396096
"544",3,28,0,1,64,2,0.090667,0,0,-0.7,743,1,82,100,0,-1,2728,1,0,-1,1,0.7,18,-0.447512101767421,0.133754305396096
"545",3,28,0,1,65,2,0.090667,0,1,0.6,1443,0,28,28,1,0.6,3193,0,0,-0.6,1,0.6,0,-0.447512101767421,0.133754305396096
"546",3,28,0,1,66,2,0.090667,0,0,-0.7,753,1,82,68,0,-0.6,2588,1,1,0.6,0,0.7,-14,-0.447512101767421,0.133754305396096
"547",3,28,0,1,67,2,0.090667,0,0,-0.6,705,1,68,68,0,-0.6,2290,1,1,0.6,0,0.6,0,-0.447512101767421,0.133754305396096
"548",3,28,0,1,68,2,0.090667,1,0,-0.7,743,0,2,68,1,0.6,3358,1,1,0.9,1,0.7,66,-0.447512101767421,0.133754305396096
"549",3,28,0,1,69,2,0.090667,0,0,-0.9,1064,1,98,100,0,-1,2779,1,0,-0.7,1,0.9,2,-0.447512101767421,0.133754305396096
"550",3,28,0,1,70,2,0.090667,1,1,0.9,968,1,98,100,1,1,2774,1,1,0.9,1,0.9,2,-0.447512101767421,0.133754305396096
"551",3,28,0,1,71,2,0.090667,1,0,-0.6,1083,0,28,92,1,0.8,3378,1,1,0.9,1,0.6,64,-0.447512101767421,0.133754305396096
"552",3,28,0,1,72,2,0.090667,0,0,-0.6,938,1,68,82,0,-0.7,2748,1,0,-0.8,1,0.6,14,-0.447512101767421,0.133754305396096
"553",3,28,0,1,73,2,0.090667,1,1,0.8,1436,1,92,98,1,0.9,3385,1,1,0.7,1,0.8,6,-0.447512101767421,0.133754305396096
"554",3,28,0,1,74,2,0.090667,0,0,-0.9,1475,1,98,100,0,-1,3265,1,0,-0.9,1,0.9,2,-0.447512101767421,0.133754305396096
"555",3,28,0,1,75,2,0.090667,0,1,0.7,1222,0,2,92,0,-0.8,4253,1,0,-1,1,0.7,90,-0.447512101767421,0.133754305396096
"556",3,28,0,1,76,2,0.090667,0,0,-0.7,1019,1,82,98,0,-0.9,2899,1,0,-0.8,1,0.7,16,-0.447512101767421,0.133754305396096
"557",3,28,0,1,77,2,0.090667,0,0,-0.7,772,1,82,98,0,-0.9,2957,1,0,-0.7,1,0.7,16,-0.447512101767421,0.133754305396096
"558",3,28,0,1,78,2,0.090667,1,1,0.6,1043,1,68,98,1,0.9,3313,1,1,0.8,1,0.6,30,-0.447512101767421,0.133754305396096
"559",3,28,0,1,79,2,0.090667,1,1,0.6,1126,1,68,98,1,0.9,3291,1,1,1,1,0.6,30,-0.447512101767421,0.133754305396096
"560",3,28,0,1,80,2,0.090667,1,0,-0.6,741,0,28,28,0,-0.6,3446,0,1,0.7,1,0.6,0,-0.447512101767421,0.133754305396096
"561",3,28,0,1,81,2,0.090667,1,0,-0.7,877,0,2,68,1,0.6,2917,1,1,0.9,1,0.7,66,-0.447512101767421,0.133754305396096
"562",3,28,0,1,82,2,0.090667,0,0,-0.6,625,1,68,68,0,-0.6,2225,1,1,0.6,0,0.6,0,-0.447512101767421,0.133754305396096
"563",3,28,0,1,83,2,0.090667,1,1,0.6,852,1,68,98,1,0.9,2877,1,1,1,1,0.6,30,-0.447512101767421,0.133754305396096
"564",3,28,0,1,84,2,0.090667,1,0,-0.7,849,0,2,2,0,-0.7,2464,0,0,-0.6,0,0.7,0,-0.447512101767421,0.133754305396096
"565",3,28,0,1,85,2,0.090667,1,0,-0.6,705,0,28,68,1,0.6,2826,1,1,0.8,1,0.6,40,-0.447512101767421,0.133754305396096
"566",3,28,0,1,86,2,0.090667,0,0,-0.6,980,1,68,82,0,-0.7,2740,1,0,-0.7,1,0.6,14,-0.447512101767421,0.133754305396096
"567",3,28,0,1,87,2,0.090667,0,0,-0.6,712,1,68,98,0,-0.9,2797,1,0,-0.9,1,0.6,30,-0.447512101767421,0.133754305396096
"568",3,28,0,1,88,2,0.090667,1,1,0.7,965,1,82,92,1,0.8,2645,1,1,0.6,1,0.7,10,-0.447512101767421,0.133754305396096
"569",3,28,0,1,89,2,0.090667,1,1,0.8,1195,1,92,100,1,1,2995,1,1,1,1,0.8,8,-0.447512101767421,0.133754305396096
"570",3,28,0,1,90,2,0.090667,0,0,-0.9,1107,1,98,100,0,-1,2748,1,0,-0.8,1,0.9,2,-0.447512101767421,0.133754305396096
"571",3,28,0,1,91,2,0.090667,1,1,0.6,2560,1,68,98,1,0.9,5040,1,1,0.8,1,0.6,30,-0.447512101767421,0.133754305396096
"572",3,28,0,1,92,2,0.090667,1,1,0.9,990,1,98,100,1,1,2805,1,1,0.8,1,0.9,2,-0.447512101767421,0.133754305396096
"573",3,28,0,1,93,2,0.090667,0,0,-0.7,1161,1,82,100,0,-1,3511,1,0,-0.9,1,0.7,18,-0.447512101767421,0.133754305396096
"574",3,28,0,1,94,2,0.090667,1,1,0.7,686,1,82,92,1,0.8,2596,1,1,0.6,1,0.7,10,-0.447512101767421,0.133754305396096
"575",3,28,0,1,95,2,0.090667,1,1,0.8,777,1,92,100,1,1,2767,1,1,0.8,1,0.8,8,-0.447512101767421,0.133754305396096
"576",3,28,0,1,96,2,0.090667,1,0,-0.6,906,0,28,2,0,-0.7,2801,0,0,-0.6,0,0.6,-26,-0.447512101767421,0.133754305396096
"577",3,28,0,1,97,2,0.090667,0,0,-0.7,809,1,82,68,0,-0.6,2929,1,1,0.6,0,0.7,-14,-0.447512101767421,0.133754305396096
"578",3,28,0,1,98,2,0.090667,0,0,-0.7,1271,1,82,92,0,-0.8,2981,1,0,-0.6,1,0.7,10,-0.447512101767421,0.133754305396096
"579",3,28,0,1,99,2,0.090667,0,0,-0.6,573,1,68,98,0,-0.9,3979,1,0,-0.9,1,0.6,30,-0.447512101767421,0.133754305396096
"580",3,28,0,1,100,2,0.090667,0,0,-0.7,654,1,82,98,0,-0.9,2614,1,0,-0.8,1,0.7,16,-0.447512101767421,0.133754305396096
"581",3,28,0,1,101,2,0.090667,0,0,-0.6,620,1,68,100,0,-1,3045,1,0,-1,1,0.6,32,-0.447512101767421,0.133754305396096
"582",3,28,0,1,102,2,0.090667,0,1,0.7,858,0,2,98,0,-0.9,3378,1,0,-1,1,0.7,96,-0.447512101767421,0.133754305396096
"583",3,28,0,1,103,2,0.090667,1,1,0.7,808,1,82,100,1,1,2958,1,1,1,1,0.7,18,-0.447512101767421,0.133754305396096
"584",3,28,0,1,104,2,0.090667,1,0,-0.6,587,0,28,28,0,-0.6,2268,0,1,0.6,1,0.6,0,-0.447512101767421,0.133754305396096
"585",3,28,0,1,105,2,0.090667,0,0,-0.8,794,1,92,98,0,-0.9,2594,1,0,-0.7,1,0.8,6,-0.447512101767421,0.133754305396096
"586",3,28,0,1,106,2,0.090667,0,1,0.6,544,0,28,68,0,-0.6,2454,1,0,-0.7,1,0.6,40,-0.447512101767421,0.133754305396096
"587",3,28,0,1,107,2,0.090667,1,1,0.8,833,1,92,98,1,0.9,2613,1,1,0.7,1,0.8,6,-0.447512101767421,0.133754305396096
"588",3,28,0,1,108,2,0.090667,1,1,0.6,995,1,68,68,1,0.6,2660,1,0,-0.6,0,0.6,0,-0.447512101767421,0.133754305396096
"589",3,28,0,1,109,2,0.090667,0,0,-0.7,624,1,82,98,0,-0.9,2429,1,0,-0.9,1,0.7,16,-0.447512101767421,0.133754305396096
"590",3,28,0,1,110,2,0.090667,0,1,0.6,636,0,28,92,0,-0.8,3446,1,0,-0.9,1,0.6,64,-0.447512101767421,0.133754305396096
"591",3,28,0,1,111,2,0.090667,0,0,-0.9,848,1,98,100,0,-1,2758,1,0,-1,1,0.9,2,-0.447512101767421,0.133754305396096
"592",3,28,0,1,112,2,0.090667,0,1,0.6,681,0,28,92,0,-0.8,2812,1,0,-0.9,1,0.6,64,-0.447512101767421,0.133754305396096
"593",3,28,0,1,113,2,0.090667,0,0,-0.9,1215,1,98,28,1,0.6,5900,0,1,0.7,0,0.9,-70,-0.447512101767421,0.133754305396096
"594",3,28,0,1,114,2,0.090667,0,0,-0.9,935,1,98,100,0,-1,2791,1,0,-0.7,1,0.9,2,-0.447512101767421,0.133754305396096
"595",3,28,0,1,115,2,0.090667,0,0,-0.6,1123,1,68,98,0,-0.9,3208,1,0,-1,1,0.6,30,-0.447512101767421,0.133754305396096
"596",3,28,0,1,116,2,0.090667,0,1,0.6,746,0,28,68,0,-0.6,2866,1,0,-0.8,1,0.6,40,-0.447512101767421,0.133754305396096
"597",3,28,0,1,117,2,0.090667,0,1,0.6,788,0,28,98,0,-0.9,3128,1,0,-1,1,0.6,70,-0.447512101767421,0.133754305396096
"598",3,28,0,1,118,2,0.090667,1,1,0.9,837,1,98,68,1,0.6,3422,1,0,-0.7,0,0.9,-30,-0.447512101767421,0.133754305396096
"599",3,28,0,1,119,2,0.090667,1,1,0.9,865,1,98,100,1,1,2516,1,1,0.7,1,0.9,2,-0.447512101767421,0.133754305396096
"600",3,28,0,1,120,2,0.090667,1,1,0.9,960,1,98,100,1,1,2600,1,1,1,1,0.9,2,-0.447512101767421,0.133754305396096
"601",3,28,0,2,121,1,0.090667,1,1,0.8,976,1,92,100,1,1,3601,1,1,0.7,1,0.8,8,-0.447512101767421,0.133754305396096
"602",3,28,0,2,122,1,0.090667,0,1,0.6,657,0,28,-28,1,0.8,2617,0,1,0.7,0,0.6,-56,-0.447512101767421,0.133754305396096
"603",3,28,0,2,123,1,0.090667,0,0,-0.7,979,1,82,100,0,-1,3379,1,0,-1,1,0.7,18,-0.447512101767421,0.133754305396096
"604",3,28,0,2,124,1,0.090667,0,0,-0.6,633,1,68,98,0,-0.9,3118,1,0,-0.8,1,0.6,30,-0.447512101767421,0.133754305396096
"605",3,28,0,2,125,1,0.090667,0,1,0.7,1196,0,2,2,1,0.7,3197,0,0,-0.7,1,0.7,0,-0.447512101767421,0.133754305396096
"606",3,28,0,2,126,1,0.090667,0,0,-0.8,1015,1,92,100,0,-1,3110,1,0,-1,1,0.8,8,-0.447512101767421,0.133754305396096
"607",3,28,0,2,127,1,0.090667,0,0,-0.6,716,1,68,100,0,-1,2741,1,0,-1,1,0.6,32,-0.447512101767421,0.133754305396096
"608",3,28,0,2,128,1,0.090667,1,1,0.6,1168,1,68,100,1,1,4093,1,1,0.9,1,0.6,32,-0.447512101767421,0.133754305396096
"609",3,28,0,2,129,1,0.090667,1,1,0.7,753,1,82,92,1,0.8,2528,1,1,0.7,1,0.7,10,-0.447512101767421,0.133754305396096
"610",3,28,0,2,130,1,0.090667,0,0,-0.6,808,1,68,82,0,-0.7,2434,1,0,-0.8,1,0.6,14,-0.447512101767421,0.133754305396096
"611",3,28,0,2,131,1,0.090667,0,1,0.7,602,0,2,-62,1,0.9,2397,0,1,0.8,0,0.7,-64,-0.447512101767421,0.133754305396096
"612",3,28,0,2,132,1,0.090667,1,1,0.6,468,1,68,82,1,0.7,2253,1,1,0.7,1,0.6,14,-0.447512101767421,0.133754305396096
"613",3,28,0,2,133,1,0.090667,0,0,-0.6,508,1,68,92,0,-0.8,2723,1,0,-0.9,1,0.6,24,-0.447512101767421,0.133754305396096
"614",3,28,0,2,134,1,0.090667,1,1,0.7,703,1,82,100,1,1,2763,1,1,1,1,0.7,18,-0.447512101767421,0.133754305396096
"615",3,28,0,2,135,1,0.090667,0,0,-0.6,631,1,68,68,0,-0.6,2232,1,1,0.6,0,0.6,0,-0.447512101767421,0.133754305396096
"616",3,28,0,2,136,1,0.090667,1,1,0.6,470,1,68,92,1,0.8,2645,1,1,1,1,0.6,24,-0.447512101767421,0.133754305396096
"617",3,28,0,2,137,1,0.090667,0,0,-0.6,512,1,68,2,1,0.7,2615,0,1,0.9,0,0.6,-66,-0.447512101767421,0.133754305396096
"618",3,28,0,2,138,1,0.090667,1,1,1,2122,1,100,92,1,0.8,4518,1,0,-0.7,0,1,-8,-0.447512101767421,0.133754305396096
"619",3,28,0,2,139,1,0.090667,1,1,1,1426,1,100,92,1,0.8,4201,1,0,-0.9,0,1,-8,-0.447512101767421,0.133754305396096
"620",3,28,0,2,140,1,0.090667,1,1,1,1475,1,100,100,1,1,13781,1,1,0.6,1,1,0,-0.447512101767421,0.133754305396096
"621",3,28,0,2,141,1,0.090667,0,0,-0.8,890,1,92,100,0,-1,2795,1,0,-0.7,1,0.8,8,-0.447512101767421,0.133754305396096
"622",3,28,0,2,142,1,0.090667,1,1,0.8,1021,1,92,92,1,0.8,3286,1,0,-0.7,0,0.8,0,-0.447512101767421,0.133754305396096
"623",3,28,0,2,143,1,0.090667,1,1,0.9,1604,1,98,100,1,1,3444,1,1,0.8,1,0.9,2,-0.447512101767421,0.133754305396096
"624",3,28,0,2,144,1,0.090667,0,0,-0.9,891,1,98,92,0,-0.8,2891,1,1,0.9,0,0.9,-6,-0.447512101767421,0.133754305396096
"625",3,28,0,2,145,1,0.090667,0,0,-0.7,922,1,82,98,0,-0.9,2977,1,0,-0.8,1,0.7,16,-0.447512101767421,0.133754305396096
"626",3,28,0,2,146,1,0.090667,1,1,0.8,739,1,92,92,1,0.8,2799,1,0,-0.7,0,0.8,0,-0.447512101767421,0.133754305396096
"627",3,28,0,2,147,1,0.090667,0,0,-0.6,695,1,68,92,0,-0.8,2550,1,0,-0.7,1,0.6,24,-0.447512101767421,0.133754305396096
"628",3,28,0,2,148,1,0.090667,1,1,0.8,933,1,92,100,1,1,2808,1,1,0.9,1,0.8,8,-0.447512101767421,0.133754305396096
"629",3,28,0,2,149,1,0.090667,1,1,0.9,770,1,98,98,1,0.9,2561,1,0,-0.8,0,0.9,0,-0.447512101767421,0.133754305396096
"630",3,28,0,2,150,1,0.090667,0,1,0.6,607,0,28,82,0,-0.7,3392,1,0,-1,1,0.6,54,-0.447512101767421,0.133754305396096
"631",3,28,0,2,151,1,0.090667,0,1,0.6,520,0,28,28,1,0.6,2120,0,0,-0.6,1,0.6,0,-0.447512101767421,0.133754305396096
"632",3,28,0,2,152,1,0.090667,0,0,-0.7,657,1,82,82,0,-0.7,2742,1,0,-0.6,1,0.7,0,-0.447512101767421,0.133754305396096
"633",3,28,0,2,153,1,0.090667,1,1,0.7,641,1,82,98,1,0.9,2491,1,1,0.8,1,0.7,16,-0.447512101767421,0.133754305396096
"634",3,28,0,2,154,1,0.090667,1,1,0.7,689,1,82,82,1,0.7,2435,1,0,-0.7,0,0.7,0,-0.447512101767421,0.133754305396096
"635",3,28,0,2,155,1,0.090667,0,0,-0.8,841,1,92,92,0,-0.8,3371,1,0,-0.6,1,0.8,0,-0.447512101767421,0.133754305396096
"636",3,28,0,2,156,1,0.090667,0,0,-0.7,1097,1,82,82,0,-0.7,6188,1,0,-0.7,1,0.7,0,-0.447512101767421,0.133754305396096
"637",3,28,0,2,157,1,0.090667,1,1,0.8,850,1,92,92,1,0.8,2670,1,1,0.6,1,0.8,0,-0.447512101767421,0.133754305396096
"638",3,28,0,2,158,1,0.090667,0,0,-0.8,1005,1,92,92,0,-0.8,3620,1,1,1,0,0.8,0,-0.447512101767421,0.133754305396096
"639",3,28,0,2,159,1,0.090667,0,0,-0.8,1065,1,92,92,0,-0.8,2625,1,0,-0.8,1,0.8,0,-0.447512101767421,0.133754305396096
"640",3,28,0,2,160,1,0.090667,1,1,0.9,1107,1,98,98,1,0.9,4407,1,0,-0.9,0,0.9,0,-0.447512101767421,0.133754305396096
"641",3,28,0,2,161,1,0.090667,1,0,-0.6,705,0,28,28,0,-0.6,2380,0,1,0.8,1,0.6,0,-0.447512101767421,0.133754305396096
"642",3,28,0,2,162,1,0.090667,1,1,0.9,975,1,98,98,1,0.9,4360,1,0,-0.8,0,0.9,0,-0.447512101767421,0.133754305396096
"643",3,28,0,2,163,1,0.090667,1,1,0.7,1021,1,82,82,1,0.7,3932,1,1,0.7,1,0.7,0,-0.447512101767421,0.133754305396096
"644",3,28,0,2,164,1,0.090667,1,1,0.6,1153,1,68,68,1,0.6,3188,1,0,-0.7,0,0.6,0,-0.447512101767421,0.133754305396096
"645",3,28,0,2,165,1,0.090667,0,0,-0.9,1372,1,98,98,0,-0.9,3147,1,1,0.7,0,0.9,0,-0.447512101767421,0.133754305396096
"646",3,28,0,2,166,1,0.090667,1,1,0.9,926,1,98,98,1,0.9,2566,1,1,0.8,1,0.9,0,-0.447512101767421,0.133754305396096
"647",3,28,0,2,167,1,0.090667,1,0,-0.6,477,0,28,28,0,-0.6,2142,0,1,0.6,1,0.6,0,-0.447512101767421,0.133754305396096
"648",3,28,0,2,168,1,0.090667,0,0,-0.8,738,1,92,98,0,-0.9,3173,1,0,-1,1,0.8,6,-0.447512101767421,0.133754305396096
"649",3,28,0,2,169,1,0.090667,0,1,0.6,519,0,28,28,1,0.6,2154,0,0,-0.6,1,0.6,0,-0.447512101767421,0.133754305396096
"650",3,28,0,2,170,1,0.090667,0,0,-0.7,1125,1,82,28,1,0.6,3670,0,1,1,0,0.7,-54,-0.447512101767421,0.133754305396096
"651",3,28,0,2,171,1,0.090667,0,0,-0.6,498,1,68,68,0,-0.6,2698,1,1,0.9,0,0.6,0,-0.447512101767421,0.133754305396096
"652",3,28,0,2,172,1,0.090667,0,0,-1,1475,1,100,100,0,-1,2765,1,0,-1,1,1,0,-0.447512101767421,0.133754305396096
"653",3,28,0,2,173,1,0.090667,1,1,0.9,844,1,98,98,1,0.9,2509,1,1,0.6,1,0.9,0,-0.447512101767421,0.133754305396096
"654",3,28,0,2,174,1,0.090667,0,0,-0.6,683,1,68,82,0,-0.7,2328,1,0,-0.8,1,0.6,14,-0.447512101767421,0.133754305396096
"655",3,28,0,2,175,1,0.090667,0,0,-0.8,1092,1,92,98,0,-0.9,2747,1,0,-0.9,1,0.8,6,-0.447512101767421,0.133754305396096
"656",3,28,0,2,176,1,0.090667,1,1,0.9,1382,1,98,98,1,0.9,3153,1,0,-0.9,0,0.9,0,-0.447512101767421,0.133754305396096
"657",3,28,0,2,177,1,0.090667,1,0,-0.6,729,0,28,28,0,-0.6,2689,0,1,0.7,1,0.6,0,-0.447512101767421,0.133754305396096
"658",3,28,0,2,178,1,0.090667,1,1,0.6,1042,1,68,68,1,0.6,2607,1,0,-0.6,0,0.6,0,-0.447512101767421,0.133754305396096
"659",3,28,0,2,179,1,0.090667,0,0,-0.7,612,1,82,82,0,-0.7,2222,1,0,-0.6,1,0.7,0,-0.447512101767421,0.133754305396096
"660",3,28,0,2,180,1,0.090667,0,1,0.6,458,0,28,68,0,-0.6,2788,1,0,-0.7,1,0.6,40,-0.447512101767421,0.133754305396096
"661",3,28,0,2,181,1,0.090667,1,1,0.9,1968,1,98,98,1,0.9,3683,1,0,-0.6,0,0.9,0,-0.447512101767421,0.133754305396096
"662",3,28,0,2,182,1,0.090667,0,0,-0.9,1009,1,98,98,0,-0.9,2744,1,1,0.6,0,0.9,0,-0.447512101767421,0.133754305396096
"663",3,28,0,2,183,1,0.090667,0,0,-0.9,1140,1,98,98,0,-0.9,2965,1,1,0.8,0,0.9,0,-0.447512101767421,0.133754305396096
"664",3,28,0,2,184,1,0.090667,0,0,-0.9,1085,1,98,98,0,-0.9,3711,1,1,1,0,0.9,0,-0.447512101767421,0.133754305396096
"665",3,28,0,2,185,1,0.090667,0,0,-0.9,1039,1,98,100,0,-1,3264,1,0,-1,1,0.9,2,-0.447512101767421,0.133754305396096
"666",3,28,0,2,186,1,0.090667,1,1,0.9,1116,1,98,98,1,0.9,2821,1,0,-0.8,0,0.9,0,-0.447512101767421,0.133754305396096
"667",3,28,0,2,187,1,0.090667,0,0,-0.9,978,1,98,98,0,-0.9,2753,1,1,0.9,0,0.9,0,-0.447512101767421,0.133754305396096
"668",3,28,0,2,188,1,0.090667,1,1,0.9,930,1,98,98,1,0.9,2545,1,0,-0.6,0,0.9,0,-0.447512101767421,0.133754305396096
"669",3,28,0,2,189,1,0.090667,1,1,0.9,985,1,98,98,1,0.9,2566,1,0,-0.9,0,0.9,0,-0.447512101767421,0.133754305396096
"670",3,28,0,2,190,1,0.090667,1,1,0.7,852,1,82,82,1,0.7,2427,1,1,0.8,1,0.7,0,-0.447512101767421,0.133754305396096
"671",3,28,0,2,191,1,0.090667,0,0,-0.8,836,1,92,92,0,-0.8,2466,1,1,1,0,0.8,0,-0.447512101767421,0.133754305396096
"672",3,28,0,2,192,1,0.090667,1,1,0.8,1138,1,92,98,1,0.9,2998,1,1,0.9,1,0.8,6,-0.447512101767421,0.133754305396096
"673",3,28,0,2,193,1,0.090667,1,1,0.6,547,1,68,82,1,0.7,2297,1,1,1,1,0.6,14,-0.447512101767421,0.133754305396096
"674",3,28,0,2,194,1,0.090667,1,1,0.8,1364,1,92,92,1,0.8,4610,1,1,0.8,1,0.8,0,-0.447512101767421,0.133754305396096
"675",3,28,0,2,195,1,0.090667,0,0,-0.9,1033,1,98,98,0,-0.9,2648,1,1,1,0,0.9,0,-0.447512101767421,0.133754305396096
"676",3,28,0,2,196,1,0.090667,0,0,-0.9,1182,1,98,98,0,-0.9,2817,1,0,-0.7,1,0.9,0,-0.447512101767421,0.133754305396096
"677",3,28,0,2,197,1,0.090667,1,1,0.7,775,1,82,82,1,0.7,3550,1,0,-0.9,0,0.7,0,-0.447512101767421,0.133754305396096
"678",3,28,0,2,198,1,0.090667,1,1,0.9,1073,1,98,98,1,0.9,2863,1,1,0.6,1,0.9,0,-0.447512101767421,0.133754305396096
"679",3,28,0,2,199,1,0.090667,1,1,0.7,990,1,82,92,1,0.8,3316,1,1,1,1,0.7,10,-0.447512101767421,0.133754305396096
"680",3,28,0,2,200,1,0.090667,1,1,0.6,915,1,68,68,1,0.6,2555,1,0,-0.9,0,0.6,0,-0.447512101767421,0.133754305396096
"681",3,28,0,2,201,1,0.090667,1,1,0.6,949,1,68,68,1,0.6,2879,1,1,0.9,1,0.6,0,-0.447512101767421,0.133754305396096
"682",3,28,0,2,202,1,0.090667,0,0,-0.6,517,1,68,68,0,-0.6,2152,1,0,-0.8,1,0.6,0,-0.447512101767421,0.133754305396096
"683",3,28,0,2,203,1,0.090667,1,1,0.8,842,1,92,92,1,0.8,2632,1,1,0.8,1,0.8,0,-0.447512101767421,0.133754305396096
"684",3,28,0,2,204,1,0.090667,0,0,-0.8,936,1,92,98,0,-0.9,2881,1,0,-1,1,0.8,6,-0.447512101767421,0.133754305396096
"685",3,28,0,2,205,1,0.090667,1,1,0.8,953,1,92,92,1,0.8,2593,1,1,0.7,1,0.8,0,-0.447512101767421,0.133754305396096
"686",3,28,0,2,206,1,0.090667,0,0,-0.8,1236,1,92,98,0,-0.9,3121,1,0,-1,1,0.8,6,-0.447512101767421,0.133754305396096
"687",3,28,0,2,207,1,0.090667,1,1,0.6,750,1,68,68,1,0.6,3016,1,0,-0.6,0,0.6,0,-0.447512101767421,0.133754305396096
"688",3,28,0,2,208,1,0.090667,1,1,0.7,790,1,82,92,1,0.8,3790,1,1,0.8,1,0.7,10,-0.447512101767421,0.133754305396096
"689",3,28,0,2,209,1,0.090667,0,0,-0.7,681,1,82,82,0,-0.7,2331,1,0,-0.7,1,0.7,0,-0.447512101767421,0.133754305396096
"690",3,28,0,2,210,1,0.090667,1,1,0.7,680,1,82,82,1,0.7,2680,1,1,1,1,0.7,0,-0.447512101767421,0.133754305396096
"691",3,28,0,2,211,1,0.090667,0,0,-0.8,856,1,92,92,0,-0.8,2561,1,0,-0.8,1,0.8,0,-0.447512101767421,0.133754305396096
"692",3,28,0,2,212,1,0.090667,1,1,0.8,678,1,92,92,1,0.8,2458,1,0,-1,0,0.8,0,-0.447512101767421,0.133754305396096
"693",3,28,0,2,213,1,0.090667,0,0,-0.8,877,1,92,92,0,-0.8,2667,1,0,-1,1,0.8,0,-0.447512101767421,0.133754305396096
"694",3,28,0,2,214,1,0.090667,0,0,-0.6,1772,1,68,68,0,-0.6,3402,1,1,0.9,0,0.6,0,-0.447512101767421,0.133754305396096
"695",3,28,0,2,215,1,0.090667,0,0,-0.8,936,1,92,92,0,-0.8,2966,1,0,-0.6,1,0.8,0,-0.447512101767421,0.133754305396096
"696",3,28,0,2,216,1,0.090667,0,0,-0.8,867,1,92,92,0,-0.8,2907,1,1,0.6,0,0.8,0,-0.447512101767421,0.133754305396096
"697",3,28,0,2,217,1,0.090667,1,1,1,1096,1,100,100,1,1,2612,1,1,0.9,1,1,0,-0.447512101767421,0.133754305396096
"698",3,28,0,2,218,1,0.090667,1,1,0.8,870,1,92,92,1,0.8,2580,1,0,-1,0,0.8,0,-0.447512101767421,0.133754305396096
"699",3,28,0,2,219,1,0.090667,0,0,-0.9,980,1,98,98,0,-0.9,2595,1,0,-0.8,1,0.9,0,-0.447512101767421,0.133754305396096
"700",3,28,0,2,220,1,0.090667,0,0,-0.7,693,1,82,82,0,-0.7,2428,1,0,-0.9,1,0.7,0,-0.447512101767421,0.133754305396096
"701",3,28,0,2,221,1,0.090667,1,1,0.7,858,1,82,82,1,0.7,3593,1,0,-0.8,0,0.7,0,-0.447512101767421,0.133754305396096
"702",3,28,0,2,222,1,0.090667,0,0,-0.6,599,1,68,68,0,-0.6,1999,1,0,-0.6,1,0.6,0,-0.447512101767421,0.133754305396096
"703",3,28,0,2,223,1,0.090667,1,1,0.9,1052,1,98,100,1,1,3157,1,1,1,1,0.9,2,-0.447512101767421,0.133754305396096
"704",3,28,0,2,224,1,0.090667,1,0,-0.6,1315,0,28,28,0,-0.6,2905,0,1,0.6,1,0.6,0,-0.447512101767421,0.133754305396096
"705",3,28,0,2,225,1,0.090667,0,1,0.9,1036,0,-62,-62,1,0.9,2341,0,1,0.9,0,0.9,0,-0.447512101767421,0.133754305396096
"706",3,28,0,2,226,1,0.090667,0,0,-0.9,960,1,98,98,0,-0.9,2425,1,0,-0.9,1,0.9,0,-0.447512101767421,0.133754305396096
"707",3,28,0,2,227,1,0.090667,1,1,0.9,1039,1,98,98,1,0.9,2664,1,1,0.6,1,0.9,0,-0.447512101767421,0.133754305396096
"708",3,28,0,2,228,1,0.090667,0,0,-0.9,995,1,98,98,0,-0.9,2515,1,0,-0.9,1,0.9,0,-0.447512101767421,0.133754305396096
"709",3,28,0,2,229,1,0.090667,0,0,-0.9,1035,1,98,98,0,-0.9,2800,1,1,0.7,0,0.9,0,-0.447512101767421,0.133754305396096
"710",3,28,0,2,230,1,0.090667,1,1,0.9,855,1,98,98,1,0.9,2470,1,0,-0.6,0,0.9,0,-0.447512101767421,0.133754305396096
"711",3,28,0,2,231,1,0.090667,0,0,-0.9,824,1,98,98,0,-0.9,2604,1,1,0.7,0,0.9,0,-0.447512101767421,0.133754305396096
"712",3,28,0,2,232,1,0.090667,0,0,-0.6,550,1,68,68,0,-0.6,2150,1,1,0.7,0,0.6,0,-0.447512101767421,0.133754305396096
"713",3,28,0,2,233,1,0.090667,1,1,0.7,642,1,82,82,1,0.7,2188,1,1,0.6,1,0.7,0,-0.447512101767421,0.133754305396096
"714",3,28,0,2,234,1,0.090667,1,1,0.7,720,1,82,82,1,0.7,2256,1,1,0.9,1,0.7,0,-0.447512101767421,0.133754305396096
"715",3,28,0,2,235,1,0.090667,0,0,-0.8,776,1,92,92,0,-0.8,2881,1,1,1,0,0.8,0,-0.447512101767421,0.133754305396096
"716",3,28,0,2,236,1,0.090667,1,1,0.8,864,1,92,92,1,0.8,2474,1,1,0.8,1,0.8,0,-0.447512101767421,0.133754305396096
"717",3,28,0,2,237,1,0.090667,1,1,0.9,1067,1,98,98,1,0.9,2797,1,1,0.6,1,0.9,0,-0.447512101767421,0.133754305396096
"718",3,28,0,2,238,1,0.090667,0,0,-0.9,1062,1,98,98,0,-0.9,3237,1,1,0.8,0,0.9,0,-0.447512101767421,0.133754305396096
"719",3,28,0,2,239,1,0.090667,1,1,0.9,1419,1,98,98,1,0.9,3184,1,1,0.7,1,0.9,0,-0.447512101767421,0.133754305396096
"720",3,28,0,2,240,1,0.090667,1,1,0.9,1064,1,98,98,1,0.9,3184,1,0,-0.9,0,0.9,0,-0.447512101767421,0.133754305396096
"721",4,23,1,1,1,1,0.115,0,0,-0.7,2473,1,82,82,0,-0.7,9394,1,1,0.7,0,0.7,0,0.141815988873692,-0.005
"722",4,23,1,1,2,1,0.115,0,0,-0.7,1793,1,82,82,0,-0.7,4853,1,0,-0.6,1,0.7,0,0.141815988873692,-0.005
"723",4,23,1,1,3,1,0.115,1,0,-0.6,1135,0,28,2,0,-0.7,5125,0,0,-0.6,0,0.6,-26,0.141815988873692,-0.005
"724",4,23,1,1,4,1,0.115,0,0,-0.7,1299,1,82,82,0,-0.7,5994,1,1,0.9,0,0.7,0,0.141815988873692,-0.005
"725",4,23,1,1,5,1,0.115,0,0,-0.6,1993,1,68,68,0,-0.6,7129,1,1,1,0,0.6,0,0.141815988873692,-0.005
"726",4,23,1,1,6,1,0.115,0,0,-0.6,2631,1,68,82,0,-0.7,4727,1,0,-0.8,1,0.6,14,0.141815988873692,-0.005
"727",4,23,1,1,7,1,0.115,1,0,-0.7,1080,0,2,2,0,-0.7,2885,0,1,0.7,1,0.7,0,0.141815988873692,-0.005
"728",4,23,1,1,8,1,0.115,1,1,0.7,1074,1,82,82,1,0.7,3114,1,0,-0.7,0,0.7,0,0.141815988873692,-0.005
"729",4,23,1,1,9,1,0.115,1,0,-0.7,859,0,2,2,0,-0.7,2254,0,1,0.9,1,0.7,0,0.141815988873692,-0.005
"730",4,23,1,1,10,1,0.115,1,1,0.7,896,1,82,82,1,0.7,2561,1,0,-1,0,0.7,0,0.141815988873692,-0.005
"731",4,23,1,1,11,1,0.115,0,1,0.7,1065,0,2,-28,1,0.8,3876,0,1,0.8,0,0.7,-30,0.141815988873692,-0.005
"732",4,23,1,1,12,1,0.115,0,1,0.7,968,0,2,2,1,0.7,2353,0,0,-0.6,1,0.7,0,0.141815988873692,-0.005
"733",4,23,1,1,13,1,0.115,1,1,0.6,2843,1,68,68,1,0.6,4528,1,1,0.8,1,0.6,0,0.141815988873692,-0.005
"734",4,23,1,1,14,1,0.115,0,1,0.6,1176,0,28,-28,1,0.8,3936,0,1,0.9,0,0.6,-56,0.141815988873692,-0.005
"735",4,23,1,1,15,1,0.115,0,0,-0.6,1033,1,68,82,0,-0.7,2618,1,0,-0.7,1,0.6,14,0.141815988873692,-0.005
"736",4,23,1,1,16,1,0.115,1,0,-0.6,1005,0,28,28,0,-0.6,2461,0,1,0.7,1,0.6,0,0.141815988873692,-0.005
"737",4,23,1,1,17,1,0.115,0,1,0.7,919,0,2,2,1,0.7,2359,0,0,-1,1,0.7,0,0.141815988873692,-0.005
"738",4,23,1,1,18,1,0.115,0,1,0.7,1086,0,2,2,1,0.7,4326,0,0,-1,1,0.7,0,0.141815988873692,-0.005
"739",4,23,1,1,19,1,0.115,1,0,-0.6,817,0,28,2,0,-0.7,2377,0,0,-0.7,0,0.6,-26,0.141815988873692,-0.005
"740",4,23,1,1,20,1,0.115,0,1,0.6,2400,0,28,2,1,0.7,4435,0,1,0.6,0,0.6,-26,0.141815988873692,-0.005
"741",4,23,1,1,21,1,0.115,0,1,0.6,774,0,28,28,1,0.6,2825,0,0,-0.8,1,0.6,0,0.141815988873692,-0.005
"742",4,23,1,1,22,1,0.115,1,0,-0.6,891,0,28,-28,0,-0.8,3251,0,0,-0.9,0,0.6,-56,0.141815988873692,-0.005
"743",4,23,1,1,23,1,0.115,1,0,-0.6,1439,0,28,82,1,0.7,3959,1,1,1,1,0.6,54,0.141815988873692,-0.005
"744",4,23,1,1,24,1,0.115,0,0,-0.6,1160,1,68,92,0,-0.8,3860,1,0,-0.9,1,0.6,24,0.141815988873692,-0.005
"745",4,23,1,1,25,1,0.115,0,0,-0.7,876,1,82,92,0,-0.8,2811,1,0,-0.7,1,0.7,10,0.141815988873692,-0.005
"746",4,23,1,1,26,1,0.115,0,0,-0.7,923,1,82,92,0,-0.8,2698,1,0,-0.6,1,0.7,10,0.141815988873692,-0.005
"747",4,23,1,1,27,1,0.115,0,0,-0.6,1748,1,68,82,0,-0.7,3973,1,0,-0.7,1,0.6,14,0.141815988873692,-0.005
"748",4,23,1,1,28,1,0.115,0,0,-0.6,782,1,68,68,0,-0.6,4048,1,1,0.7,0,0.6,0,0.141815988873692,-0.005
"749",4,23,1,1,29,1,0.115,0,0,-0.7,1150,1,82,82,0,-0.7,2975,1,0,-0.7,1,0.7,0,0.141815988873692,-0.005
"750",4,23,1,1,30,1,0.115,0,0,-0.7,789,1,82,92,0,-0.8,2669,1,0,-1,1,0.7,10,0.141815988873692,-0.005
"751",4,23,1,1,31,1,0.115,0,0,-0.7,1584,1,82,92,0,-0.8,3442,1,0,-0.9,1,0.7,10,0.141815988873692,-0.005
"752",4,23,1,1,32,1,0.115,0,0,-0.7,823,1,82,82,0,-0.7,2563,1,1,0.6,0,0.7,0,0.141815988873692,-0.005
"753",4,23,1,1,33,1,0.115,1,0,-0.7,852,0,2,2,0,-0.7,2822,0,0,-0.9,0,0.7,0,0.141815988873692,-0.005
"754",4,23,1,1,34,1,0.115,0,0,-0.8,1610,1,92,92,0,-0.8,3075,1,0,-0.8,1,0.8,0,0.141815988873692,-0.005
"755",4,23,1,1,35,1,0.115,1,1,0.8,1147,1,92,82,1,0.7,3288,1,0,-0.8,0,0.8,-10,0.141815988873692,-0.005
"756",4,23,1,1,36,1,0.115,0,1,0.7,770,0,2,28,1,0.6,2800,0,0,-1,1,0.7,26,0.141815988873692,-0.005
"757",4,23,1,1,37,1,0.115,1,0,-0.6,1006,0,28,28,0,-0.6,2556,0,0,-0.8,0,0.6,0,0.141815988873692,-0.005
"758",4,23,1,1,38,1,0.115,0,0,-0.7,847,1,82,92,0,-0.8,2642,1,0,-0.8,1,0.7,10,0.141815988873692,-0.005
"759",4,23,1,1,39,1,0.115,1,0,-0.7,1855,0,2,2,0,-0.7,3390,0,1,0.8,1,0.7,0,0.141815988873692,-0.005
"760",4,23,1,1,40,1,0.115,0,0,-0.7,738,1,82,82,0,-0.7,2163,1,0,-0.7,1,0.7,0,0.141815988873692,-0.005
"761",4,23,1,1,41,1,0.115,1,0,-0.7,1902,0,2,28,0,-0.6,4282,0,1,1,1,0.7,26,0.141815988873692,-0.005
"762",4,23,1,1,42,1,0.115,1,1,0.7,765,1,82,92,1,0.8,2735,1,1,0.6,1,0.7,10,0.141815988873692,-0.005
"763",4,23,1,1,43,1,0.115,1,1,0.7,1751,1,82,82,1,0.7,3826,1,0,-0.9,0,0.7,0,0.141815988873692,-0.005
"764",4,23,1,1,44,1,0.115,0,1,0.7,703,0,2,2,1,0.7,2343,0,0,-0.6,1,0.7,0,0.141815988873692,-0.005
"765",4,23,1,1,45,1,0.115,0,0,-0.7,905,1,82,92,0,-0.8,3345,1,0,-0.6,1,0.7,10,0.141815988873692,-0.005
"766",4,23,1,1,46,1,0.115,1,0,-0.6,1025,0,28,68,1,0.6,4095,1,1,0.8,1,0.6,40,0.141815988873692,-0.005
"767",4,23,1,1,47,1,0.115,0,0,-0.6,834,1,68,28,1,0.6,2879,0,1,0.7,0,0.6,-40,0.141815988873692,-0.005
"768",4,23,1,1,48,1,0.115,0,1,0.6,728,0,28,2,1,0.7,2968,0,1,0.9,0,0.6,-26,0.141815988873692,-0.005
"769",4,23,1,1,49,1,0.115,1,1,0.6,1061,1,68,28,0,-0.6,3216,0,0,-0.7,0,0.6,-40,0.141815988873692,-0.005
"770",4,23,1,1,50,1,0.115,0,1,0.6,818,0,28,28,1,0.6,4419,0,1,0.6,0,0.6,0,0.141815988873692,-0.005
"771",4,23,1,1,51,1,0.115,1,0,-0.6,1672,0,28,68,1,0.6,3702,1,1,0.7,1,0.6,40,0.141815988873692,-0.005
"772",4,23,1,1,52,1,0.115,1,1,0.7,1353,1,82,68,1,0.6,3093,1,0,-0.7,0,0.7,-14,0.141815988873692,-0.005
"773",4,23,1,1,53,1,0.115,1,1,0.6,952,1,68,82,1,0.7,2932,1,1,1,1,0.6,14,0.141815988873692,-0.005
"774",4,23,1,1,54,1,0.115,1,1,0.8,1265,1,92,92,1,0.8,3775,1,1,0.6,1,0.8,0,0.141815988873692,-0.005
"775",4,23,1,1,55,1,0.115,0,0,-0.6,956,1,68,82,0,-0.7,3261,1,0,-1,1,0.6,14,0.141815988873692,-0.005
"776",4,23,1,1,56,1,0.115,1,1,0.6,871,1,68,92,1,0.8,3036,1,1,1,1,0.6,24,0.141815988873692,-0.005
"777",4,23,1,1,57,1,0.115,1,1,0.7,998,1,82,92,1,0.8,2798,1,1,0.8,1,0.7,10,0.141815988873692,-0.005
"778",4,23,1,1,58,1,0.115,1,1,0.8,1292,1,92,82,1,0.7,3402,1,0,-0.8,0,0.8,-10,0.141815988873692,-0.005
"779",4,23,1,1,59,1,0.115,1,1,0.7,785,1,82,92,1,0.8,3360,1,1,0.9,1,0.7,10,0.141815988873692,-0.005
"780",4,23,1,1,60,1,0.115,0,1,0.7,721,0,2,-28,1,0.8,3601,0,1,0.9,0,0.7,-30,0.141815988873692,-0.005
"781",4,23,1,1,61,1,0.115,0,0,-0.7,922,1,82,82,0,-0.7,2552,1,0,-0.9,1,0.7,0,0.141815988873692,-0.005
"782",4,23,1,1,62,1,0.115,1,0,-0.6,772,0,28,28,0,-0.6,2177,0,1,0.8,1,0.6,0,0.141815988873692,-0.005
"783",4,23,1,1,63,1,0.115,1,1,0.7,937,1,82,82,1,0.7,3997,1,1,0.7,1,0.7,0,0.141815988873692,-0.005
"784",4,23,1,1,64,1,0.115,1,1,0.7,1014,1,82,68,1,0.6,3174,1,0,-0.9,0,0.7,-14,0.141815988873692,-0.005
"785",4,23,1,1,65,1,0.115,0,1,0.7,954,0,2,-28,1,0.8,3164,0,1,0.9,0,0.7,-30,0.141815988873692,-0.005
"786",4,23,1,1,66,1,0.115,1,1,0.7,1084,1,82,82,1,0.7,2604,1,1,0.7,1,0.7,0,0.141815988873692,-0.005
"787",4,23,1,1,67,1,0.115,1,1,0.6,645,1,68,82,1,0.7,2775,1,1,0.8,1,0.6,14,0.141815988873692,-0.005
"788",4,23,1,1,68,1,0.115,0,1,0.7,1182,0,2,2,1,0.7,3072,0,0,-0.9,1,0.7,0,0.141815988873692,-0.005
"789",4,23,1,1,69,1,0.115,0,1,0.7,678,0,2,28,1,0.6,2263,0,0,-0.9,1,0.7,26,0.141815988873692,-0.005
"790",4,23,1,1,70,1,0.115,0,0,-0.7,882,1,82,68,0,-0.6,3027,1,1,0.6,0,0.7,-14,0.141815988873692,-0.005
"791",4,23,1,1,71,1,0.115,0,1,0.6,782,0,28,28,1,0.6,2317,0,0,-0.6,1,0.6,0,0.141815988873692,-0.005
"792",4,23,1,1,72,1,0.115,0,0,-0.7,798,1,82,82,0,-0.7,2494,1,1,1,0,0.7,0,0.141815988873692,-0.005
"793",4,23,1,1,73,1,0.115,1,0,-0.7,902,0,2,2,0,-0.7,2612,0,0,-0.6,0,0.7,0,0.141815988873692,-0.005
"794",4,23,1,1,74,1,0.115,1,1,0.7,939,1,82,82,1,0.7,4194,1,1,1,1,0.7,0,0.141815988873692,-0.005
"795",4,23,1,1,75,1,0.115,0,1,0.8,1396,0,-28,-62,1,0.9,3236,0,1,1,0,0.8,-34,0.141815988873692,-0.005
"796",4,23,1,1,76,1,0.115,1,1,0.7,926,1,82,68,1,0.6,3036,1,0,-1,0,0.7,-14,0.141815988873692,-0.005
"797",4,23,1,1,77,1,0.115,0,1,0.6,1106,0,28,28,1,0.6,2992,0,0,-1,1,0.6,0,0.141815988873692,-0.005
"798",4,23,1,1,78,1,0.115,0,0,-0.7,1035,1,82,92,0,-0.8,3155,1,0,-0.8,1,0.7,10,0.141815988873692,-0.005
"799",4,23,1,1,79,1,0.115,1,1,0.6,673,1,68,68,1,0.6,2453,1,1,0.6,1,0.6,0,0.141815988873692,-0.005
"800",4,23,1,1,80,1,0.115,0,1,0.7,805,0,2,28,1,0.6,2750,0,0,-0.6,1,0.7,26,0.141815988873692,-0.005
"801",4,23,1,1,81,1,0.115,1,0,-0.6,712,0,28,28,0,-0.6,3462,0,1,1,1,0.6,0,0.141815988873692,-0.005
"802",4,23,1,1,82,1,0.115,0,0,-0.6,792,1,68,82,0,-0.7,2743,1,0,-0.9,1,0.6,14,0.141815988873692,-0.005
"803",4,23,1,1,83,1,0.115,0,0,-0.6,742,1,68,82,0,-0.7,3492,1,0,-0.9,1,0.6,14,0.141815988873692,-0.005
"804",4,23,1,1,84,1,0.115,1,0,-0.7,875,0,2,28,0,-0.6,3035,0,1,0.6,1,0.7,26,0.141815988873692,-0.005
"805",4,23,1,1,85,1,0.115,1,0,-0.6,1277,0,28,68,1,0.6,3807,1,1,0.7,1,0.6,40,0.141815988873692,-0.005
"806",4,23,1,1,86,1,0.115,0,0,-0.6,1225,1,68,68,0,-0.6,2680,1,1,0.6,0,0.6,0,0.141815988873692,-0.005
"807",4,23,1,1,87,1,0.115,0,0,-0.6,925,1,68,68,0,-0.6,2381,1,1,0.8,0,0.6,0,0.141815988873692,-0.005
"808",4,23,1,1,88,1,0.115,1,0,-0.7,1069,0,2,2,0,-0.7,2554,0,1,0.9,1,0.7,0,0.141815988873692,-0.005
"809",4,23,1,1,89,1,0.115,1,1,0.6,1408,1,68,68,1,0.6,2763,1,0,-1,0,0.6,0,0.141815988873692,-0.005
"810",4,23,1,1,90,1,0.115,1,1,0.7,728,1,82,82,1,0.7,2488,1,1,0.9,1,0.7,0,0.141815988873692,-0.005
"811",4,23,1,1,91,1,0.115,1,1,0.7,1217,1,82,92,1,0.8,2952,1,1,1,1,0.7,10,0.141815988873692,-0.005
"812",4,23,1,1,92,1,0.115,0,0,-0.7,897,1,82,82,0,-0.7,2458,1,1,0.8,0,0.7,0,0.141815988873692,-0.005
"813",4,23,1,1,93,1,0.115,1,0,-0.7,1071,0,2,2,0,-0.7,2666,0,1,1,1,0.7,0,0.141815988873692,-0.005
"814",4,23,1,1,94,1,0.115,0,0,-0.6,836,1,68,68,0,-0.6,3901,1,1,0.6,0,0.6,0,0.141815988873692,-0.005
"815",4,23,1,1,95,1,0.115,0,0,-0.8,1551,1,92,98,0,-0.9,3951,1,0,-0.9,1,0.8,6,0.141815988873692,-0.005
"816",4,23,1,1,96,1,0.115,1,0,-0.8,1105,0,-28,28,0,-0.6,3620,0,1,0.6,1,0.8,56,0.141815988873692,-0.005
"817",4,23,1,1,97,1,0.115,0,0,-0.7,2019,1,82,92,0,-0.8,3809,1,0,-1,1,0.7,10,0.141815988873692,-0.005
"818",4,23,1,1,98,1,0.115,1,0,-0.8,1226,0,-28,2,0,-0.7,3036,0,1,0.8,1,0.8,30,0.141815988873692,-0.005
"819",4,23,1,1,99,1,0.115,0,0,-0.8,1488,1,92,92,0,-0.8,3074,1,0,-0.6,1,0.8,0,0.141815988873692,-0.005
"820",4,23,1,1,100,1,0.115,0,0,-0.7,1066,1,82,92,0,-0.8,3191,1,0,-0.8,1,0.7,10,0.141815988873692,-0.005
"821",4,23,1,1,101,1,0.115,1,1,0.6,1703,1,68,68,1,0.6,4173,1,0,-0.7,0,0.6,0,0.141815988873692,-0.005
"822",4,23,1,1,102,1,0.115,0,0,-0.6,939,1,68,82,0,-0.7,3609,1,0,-1,1,0.6,14,0.141815988873692,-0.005
"823",4,23,1,1,103,1,0.115,1,1,0.6,1675,1,68,82,1,0.7,3815,1,1,0.7,1,0.6,14,0.141815988873692,-0.005
"824",4,23,1,1,104,1,0.115,1,1,0.6,1551,1,68,68,1,0.6,3201,1,1,0.8,1,0.6,0,0.141815988873692,-0.005
"825",4,23,1,1,105,1,0.115,0,0,-0.7,888,1,82,92,0,-0.8,2788,1,0,-0.8,1,0.7,10,0.141815988873692,-0.005
"826",4,23,1,1,106,1,0.115,1,1,0.7,1770,1,82,82,1,0.7,3395,1,0,-0.6,0,0.7,0,0.141815988873692,-0.005
"827",4,23,1,1,107,1,0.115,0,0,-0.7,815,1,82,92,0,-0.8,3390,1,0,-0.7,1,0.7,10,0.141815988873692,-0.005
"828",4,23,1,1,108,1,0.115,1,0,-0.7,1125,0,2,2,0,-0.7,3000,0,1,0.6,1,0.7,0,0.141815988873692,-0.005
"829",4,23,1,1,109,1,0.115,1,1,0.7,1051,1,82,68,1,0.6,3546,1,0,-0.8,0,0.7,-14,0.141815988873692,-0.005
"830",4,23,1,1,110,1,0.115,1,0,-0.7,1076,0,2,28,0,-0.6,3576,0,1,1,1,0.7,26,0.141815988873692,-0.005
"831",4,23,1,1,111,1,0.115,1,1,0.6,1853,1,68,68,1,0.6,3474,1,1,0.8,1,0.6,0,0.141815988873692,-0.005
"832",4,23,1,1,112,1,0.115,0,0,-0.6,861,1,68,68,0,-0.6,2511,1,1,0.9,0,0.6,0,0.141815988873692,-0.005
"833",4,23,1,1,113,1,0.115,1,1,0.7,1121,1,82,82,1,0.7,3961,1,0,-0.6,0,0.7,0,0.141815988873692,-0.005
"834",4,23,1,1,114,1,0.115,1,1,0.7,864,1,82,82,1,0.7,3139,1,0,-0.8,0,0.7,0,0.141815988873692,-0.005
"835",4,23,1,1,115,1,0.115,1,0,-0.7,904,0,2,28,0,-0.6,3144,0,1,0.9,1,0.7,26,0.141815988873692,-0.005
"836",4,23,1,1,116,1,0.115,1,1,0.6,664,1,68,82,1,0.7,2825,1,1,0.7,1,0.6,14,0.141815988873692,-0.005
"837",4,23,1,1,117,1,0.115,1,1,0.6,792,1,68,28,0,-0.6,2952,0,0,-0.7,0,0.6,-40,0.141815988873692,-0.005
"838",4,23,1,1,118,1,0.115,1,1,0.6,639,1,68,82,1,0.7,2679,1,1,0.7,1,0.6,14,0.141815988873692,-0.005
"839",4,23,1,1,119,1,0.115,0,0,-0.7,974,1,82,82,0,-0.7,2654,1,0,-1,1,0.7,0,0.141815988873692,-0.005
"840",4,23,1,1,120,1,0.115,0,0,-0.6,1751,1,68,28,1,0.6,3936,0,1,0.9,0,0.6,-40,0.141815988873692,-0.005
"841",4,23,1,2,121,2,0.115,1,0,-0.6,1420,0,28,28,0,-0.6,2985,0,1,0.6,1,0.6,0,0.141815988873692,-0.005
"842",4,23,1,2,122,2,0.115,0,0,-0.7,866,1,82,92,0,-0.8,3226,1,0,-0.9,1,0.7,10,0.141815988873692,-0.005
"843",4,23,1,2,123,2,0.115,1,0,-0.7,1068,0,2,2,0,-0.7,4418,0,1,1,1,0.7,0,0.141815988873692,-0.005
"844",4,23,1,2,124,2,0.115,1,1,0.7,680,1,82,82,1,0.7,2935,1,1,0.6,1,0.7,0,0.141815988873692,-0.005
"845",4,23,1,2,125,2,0.115,0,0,-0.6,728,1,68,82,0,-0.7,3063,1,0,-0.9,1,0.6,14,0.141815988873692,-0.005
"846",4,23,1,2,126,2,0.115,0,0,-0.6,711,1,68,82,0,-0.7,3246,1,0,-0.9,1,0.6,14,0.141815988873692,-0.005
"847",4,23,1,2,127,2,0.115,0,0,-0.7,1163,1,82,82,0,-0.7,2788,1,1,0.7,0,0.7,0,0.141815988873692,-0.005
"848",4,23,1,2,128,2,0.115,0,0,-0.7,910,1,82,82,0,-0.7,2220,1,0,-0.7,1,0.7,0,0.141815988873692,-0.005
"849",4,23,1,2,129,2,0.115,0,0,-0.7,780,1,82,92,0,-0.8,3041,1,0,-1,1,0.7,10,0.141815988873692,-0.005
"850",4,23,1,2,130,2,0.115,1,0,-0.8,1169,0,-28,-28,0,-0.8,2769,0,0,-0.6,0,0.8,0,0.141815988873692,-0.005
"851",4,23,1,2,131,2,0.115,1,0,-0.6,601,0,28,68,1,0.6,3016,1,1,1,1,0.6,40,0.141815988873692,-0.005
"852",4,23,1,2,132,2,0.115,0,0,-0.7,771,1,82,82,0,-0.7,5251,1,1,0.8,0,0.7,0,0.141815988873692,-0.005
"853",4,23,1,2,133,2,0.115,1,1,0.6,974,1,68,92,1,0.8,3889,1,1,1,1,0.6,24,0.141815988873692,-0.005
"854",4,23,1,2,134,2,0.115,0,0,-0.7,1209,1,82,82,0,-0.7,3299,1,0,-1,1,0.7,0,0.141815988873692,-0.005
"855",4,23,1,2,135,2,0.115,1,1,0.7,1079,1,82,92,1,0.8,2759,1,1,0.7,1,0.7,10,0.141815988873692,-0.005
"856",4,23,1,2,136,2,0.115,1,0,-0.7,901,0,2,2,0,-0.7,2461,0,1,0.7,1,0.7,0,0.141815988873692,-0.005
"857",4,23,1,2,137,2,0.115,1,1,0.7,898,1,82,92,1,0.8,2823,1,1,0.8,1,0.7,10,0.141815988873692,-0.005
"858",4,23,1,2,138,2,0.115,0,1,0.7,773,0,2,2,1,0.7,2393,0,0,-0.9,1,0.7,0,0.141815988873692,-0.005
"859",4,23,1,2,139,2,0.115,1,0,-0.7,1730,0,2,2,0,-0.7,3165,0,1,0.6,1,0.7,0,0.141815988873692,-0.005
"860",4,23,1,2,140,2,0.115,0,1,0.7,922,0,2,68,0,-0.6,3257,1,0,-0.9,1,0.7,66,0.141815988873692,-0.005
"861",4,23,1,2,141,2,0.115,1,0,-0.7,840,0,2,2,0,-0.7,2710,0,1,0.9,1,0.7,0,0.141815988873692,-0.005
"862",4,23,1,2,142,2,0.115,0,1,0.7,1057,0,2,2,1,0.7,2977,0,1,0.9,0,0.7,0,0.141815988873692,-0.005
"863",4,23,1,2,143,2,0.115,1,0,-0.7,1096,0,2,68,1,0.6,3836,1,1,0.8,1,0.7,66,0.141815988873692,-0.005
"864",4,23,1,2,144,2,0.115,1,1,0.6,2513,1,68,82,1,0.7,4688,1,1,0.7,1,0.6,14,0.141815988873692,-0.005
"865",4,23,1,2,145,2,0.115,1,1,0.6,663,1,68,82,1,0.7,2553,1,1,0.9,1,0.6,14,0.141815988873692,-0.005
"866",4,23,1,2,146,2,0.115,1,1,0.7,860,1,82,92,1,0.8,3031,1,1,0.7,1,0.7,10,0.141815988873692,-0.005
"867",4,23,1,2,147,2,0.115,1,1,0.8,1105,1,92,100,1,1,3145,1,1,1,1,0.8,8,0.141815988873692,-0.005
"868",4,23,1,2,148,2,0.115,1,1,0.7,892,1,82,92,1,0.8,2877,1,1,0.9,1,0.7,10,0.141815988873692,-0.005
"869",4,23,1,2,149,2,0.115,0,0,-0.6,2642,1,68,82,0,-0.7,4882,1,0,-1,1,0.6,14,0.141815988873692,-0.005
"870",4,23,1,2,150,2,0.115,1,0,-0.6,959,0,28,28,0,-0.6,2649,0,1,0.6,1,0.6,0,0.141815988873692,-0.005
"871",4,23,1,2,151,2,0.115,1,1,0.7,903,1,82,92,1,0.8,2943,1,1,1,1,0.7,10,0.141815988873692,-0.005
"872",4,23,1,2,152,2,0.115,1,1,0.8,1454,1,92,98,1,0.9,4470,1,1,0.9,1,0.8,6,0.141815988873692,-0.005
"873",4,23,1,2,153,2,0.115,0,1,0.8,1069,0,-28,2,1,0.7,3869,0,0,-0.7,1,0.8,30,0.141815988873692,-0.005
"874",4,23,1,2,154,2,0.115,0,0,-0.6,690,1,68,82,0,-0.7,2660,1,0,-1,1,0.6,14,0.141815988873692,-0.005
"875",4,23,1,2,155,2,0.115,1,1,0.6,875,1,68,92,1,0.8,2885,1,1,0.8,1,0.6,24,0.141815988873692,-0.005
"876",4,23,1,2,156,2,0.115,0,1,0.8,1417,0,-28,2,1,0.7,3502,0,0,-0.6,1,0.8,30,0.141815988873692,-0.005
"877",4,23,1,2,157,2,0.115,1,0,-0.7,1034,0,2,2,0,-0.7,2609,0,1,0.7,1,0.7,0,0.141815988873692,-0.005
"878",4,23,1,2,158,2,0.115,1,0,-0.6,716,0,28,28,0,-0.6,2226,0,1,0.6,1,0.6,0,0.141815988873692,-0.005
"879",4,23,1,2,159,2,0.115,1,1,0.7,675,1,82,92,1,0.8,2980,1,1,0.7,1,0.7,10,0.141815988873692,-0.005
"880",4,23,1,2,160,2,0.115,1,0,-0.6,917,0,28,28,0,-0.6,2788,0,0,-0.6,0,0.6,0,0.141815988873692,-0.005
"881",4,23,1,2,161,2,0.115,0,0,-0.7,650,1,82,92,0,-0.8,2540,1,0,-0.8,1,0.7,10,0.141815988873692,-0.005
"882",4,23,1,2,162,2,0.115,0,1,0.7,739,0,2,2,1,0.7,2359,0,0,-0.7,1,0.7,0,0.141815988873692,-0.005
"883",4,23,1,2,163,2,0.115,1,1,0.8,1016,1,92,100,1,1,3471,1,1,1,1,0.8,8,0.141815988873692,-0.005
"884",4,23,1,2,164,2,0.115,1,1,0.8,1221,1,92,98,1,0.9,3206,1,1,0.8,1,0.8,6,0.141815988873692,-0.005
"885",4,23,1,2,165,2,0.115,1,1,0.7,811,1,82,82,1,0.7,2381,1,1,0.7,1,0.7,0,0.141815988873692,-0.005
"886",4,23,1,2,166,2,0.115,1,1,0.7,845,1,82,98,1,0.9,3510,1,1,1,1,0.7,16,0.141815988873692,-0.005
"887",4,23,1,2,167,2,0.115,1,1,0.8,1065,1,92,100,1,1,3520,1,1,0.9,1,0.8,8,0.141815988873692,-0.005
"888",4,23,1,2,168,2,0.115,0,1,0.8,1364,0,-28,-28,1,0.8,2959,0,0,-0.7,1,0.8,0,0.141815988873692,-0.005
"889",4,23,1,2,169,2,0.115,1,1,0.7,574,1,82,98,1,0.9,3294,1,1,0.9,1,0.7,16,0.141815988873692,-0.005
